mouse.x,mouse.y,mouse.leftButton,mouse.midButton,mouse.rightButton,onsetTime,leftText,rightText,sliderDirection,face,lesion,block,slider.response,slider.rt,mouse_5.x,mouse_5.y,mouse_5.leftButton,mouse_5.midButton,mouse_5.rightButton,mouse_5.clicked_name,ITI,originalFaceTrials.thisRepN,originalFaceTrials.thisTrialN,originalFaceTrials.thisN,originalFaceTrials.thisIndex,originalFaceTrials.ran,Name,Gender,Age,Ethnicity,date,expName,psychopyVersion,OS,frameRate,participant,study_id,session,RatingBlockOrder.thisRepN,RatingBlockOrder.thisTrialN,RatingBlockOrder.thisN,RatingBlockOrder.thisIndex,RatingBlockOrder.ran,Task,LeftLabel,RightLabel
0.205555556,-0.299074074,1,0,0,0.6909,Extremely Unattractive,Extremely  Attractive,mirrored,CFD_WM_212_097_N.png,RCHEEK,0,25.18518519,2.7824,0.005555556,-0.405555556,1,0,0,NextBu,0.743461336,0,0,0,0,1,5c3ee593de04ad0001d91352,M,46,Greek,2022-07-28_17h28.20.765,FaceAttractiveness,2022.2.2,Win32,60.25548325,5c3ee593de04ad0001d91352,62e28ca91edcb69c59d3a195,62e2967fabf812d171fafb8a,,,,,,,,
,,,,,5.0397,Extremely Unattractive,Extremely  Attractive,mirrored,CFD_WF_250_167_N.png,RCHEEK,0,1.388888889,2.0275,0.034259259,-0.402777778,1,0,0,NextBu,0.718114778,1,0,1,0,1,5c3ee593de04ad0001d91352,M,46,Greek,2022-07-28_17h28.20.765,FaceAttractiveness,2022.2.2,Win32,60.25548325,5c3ee593de04ad0001d91352,62e28ca91edcb69c59d3a195,62e2967fabf812d171fafb8a,,,,,,,,
,,,,,8.4292,Extremely Unattractive,Extremely  Attractive,mirrored,CFD_WF_200_099_N.png,RCHEEK,0,24.25925926,2.1235,-0.00462963,-0.402777778,1,0,0,NextBu,0.654107593,2,0,2,0,1,5c3ee593de04ad0001d91352,M,46,Greek,2022-07-28_17h28.20.765,FaceAttractiveness,2022.2.2,Win32,60.25548325,5c3ee593de04ad0001d91352,62e28ca91edcb69c59d3a195,62e2967fabf812d171fafb8a,,,,,,,,
,,,,,11.7387,Extremely Unattractive,Extremely  Attractive,mirrored,CFD_WF_002_004_N.png,LIP,0,1.574074074,1.109,0.010185185,-0.387962963,1,0,0,NextBu,0.891180927,3,0,3,0,1,5c3ee593de04ad0001d91352,M,46,Greek,2022-07-28_17h28.20.765,FaceAttractiveness,2022.2.2,Win32,60.25548325,5c3ee593de04ad0001d91352,62e28ca91edcb69c59d3a195,62e2967fabf812d171fafb8a,,,,,,,,
,,,,,14.1941,Extremely Unattractive,Extremely  Attractive,mirrored,CFD_LM_203_026_N.png,RCHEEK,0,24.44444444,1.2463,0.017592593,-0.381481481,1,0,0,NextBu,0.902980941,4,0,4,0,1,5c3ee593de04ad0001d91352,M,46,Greek,2022-07-28_17h28.20.765,FaceAttractiveness,2022.2.2,Win32,60.25548325,5c3ee593de04ad0001d91352,62e28ca91edcb69c59d3a195,62e2967fabf812d171fafb8a,,,,,,,,
,,,,,16.7584,Extremely Unattractive,Extremely  Attractive,mirrored,CFD_LM_201_057_N.png,LIP,0,41.11111111,1.1091,0.00462963,-0.403703704,1,0,0,NextBu,0.91961192,5,0,5,0,1,5c3ee593de04ad0001d91352,M,46,Greek,2022-07-28_17h28.20.765,FaceAttractiveness,2022.2.2,Win32,60.25548325,5c3ee593de04ad0001d91352,62e28ca91edcb69c59d3a195,62e2967fabf812d171fafb8a,,,,,,,,
,,,,,19.3088,Extremely Unattractive,Extremely  Attractive,mirrored,CFD_LF_224_176_N.png,LIP,0,47.40740741,1.3233,-0.000925926,-0.425925926,1,0,0,NextBu,0.5436402,6,0,6,0,1,5c3ee593de04ad0001d91352,M,46,Greek,2022-07-28_17h28.20.765,FaceAttractiveness,2022.2.2,Win32,60.25548325,5c3ee593de04ad0001d91352,62e28ca91edcb69c59d3a195,62e2967fabf812d171fafb8a,,,,,,,,
,,,,,21.6947,Extremely Unattractive,Extremely  Attractive,mirrored,CFD_BM_234_172_N.png,LIP,0,26.38888889,1.0097,-0.011111111,-0.411111111,1,0,0,NextBu,0.797421059,7,0,7,0,1,5c3ee593de04ad0001d91352,M,46,Greek,2022-07-28_17h28.20.765,FaceAttractiveness,2022.2.2,Win32,60.25548325,5c3ee593de04ad0001d91352,62e28ca91edcb69c59d3a195,62e2967fabf812d171fafb8a,,,,,,,,
,,,,,23.8556,Extremely Unattractive,Extremely  Attractive,mirrored,CFD_BM_213_134_N.png,NASALTIP,0,3.055555556,0.9933,0.046296296,-0.371296296,1,0,0,NextBu,0.920732459,8,0,8,0,1,5c3ee593de04ad0001d91352,M,46,Greek,2022-07-28_17h28.20.765,FaceAttractiveness,2022.2.2,Win32,60.25548325,5c3ee593de04ad0001d91352,62e28ca91edcb69c59d3a195,62e2967fabf812d171fafb8a,,,,,,,,
,,,,,26.1632,Extremely Unattractive,Extremely  Attractive,mirrored,CFD_BF_224_002_N.png,NASALTIP,0,13.61111111,0.9291,0.024074074,-0.384259259,1,0,0,NextBu,0.634362283,9,0,9,0,1,5c3ee593de04ad0001d91352,M,46,Greek,2022-07-28_17h28.20.765,FaceAttractiveness,2022.2.2,Win32,60.25548325,5c3ee593de04ad0001d91352,62e28ca91edcb69c59d3a195,62e2967fabf812d171fafb8a,,,,,,,,
,,,,,28.0778,Extremely Unattractive,Extremely  Attractive,mirrored,CFD_BF_214_308_N.png,NASALTIP,0,43.61111111,2.1239,0.035185185,-0.42962963,1,0,0,NextBu,0.920085208,10,0,10,0,1,5c3ee593de04ad0001d91352,M,46,Greek,2022-07-28_17h28.20.765,FaceAttractiveness,2022.2.2,Win32,60.25548325,5c3ee593de04ad0001d91352,62e28ca91edcb69c59d3a195,62e2967fabf812d171fafb8a,,,,,,,,
,,,,,31.6946,Extremely Unattractive,Extremely  Attractive,mirrored,CFD_AM_233_236_N.png,FOREHEAD,0,13.7962963,1.0809,0.037962963,-0.399074074,1,0,0,NextBu,0.547831866,11,0,11,0,1,5c3ee593de04ad0001d91352,M,46,Greek,2022-07-28_17h28.20.765,FaceAttractiveness,2022.2.2,Win32,60.25548325,5c3ee593de04ad0001d91352,62e28ca91edcb69c59d3a195,62e2967fabf812d171fafb8a,,,,,,,,
,,,,,33.6464,Extremely Unattractive,Extremely  Attractive,mirrored,CFD_AF_245_143_N.png,FOREHEAD,0,25.09259259,0.9275,0.062037037,-0.387037037,1,0,0,NextBu,0.607619045,12,0,12,0,1,5c3ee593de04ad0001d91352,M,46,Greek,2022-07-28_17h28.20.765,FaceAttractiveness,2022.2.2,Win32,60.25548325,5c3ee593de04ad0001d91352,62e28ca91edcb69c59d3a195,62e2967fabf812d171fafb8a,,,,,,,,
,,,,,35.3946,Extremely Unattractive,Extremely  Attractive,mirrored,CFD_AF_237_223_N.png,FOREHEAD,0,44.16666667,0.9719,0.021296296,-0.390740741,1,0,0,NextBu,0.619870071,13,0,13,0,1,5c3ee593de04ad0001d91352,M,46,Greek,2022-07-28_17h28.20.765,FaceAttractiveness,2022.2.2,Win32,60.25548325,5c3ee593de04ad0001d91352,62e28ca91edcb69c59d3a195,62e2967fabf812d171fafb8a,,,,,,,,
,,,,,37.2271,Extremely Unattractive,Extremely  Attractive,mirrored,CFD_AF_231_357_N.png,LCHEEK,0,12.40740741,0.8825,0.034259259,-0.387037037,1,0,0,NextBu,0.98548722,14,0,14,0,1,5c3ee593de04ad0001d91352,M,46,Greek,2022-07-28_17h28.20.765,FaceAttractiveness,2022.2.2,Win32,60.25548325,5c3ee593de04ad0001d91352,62e28ca91edcb69c59d3a195,62e2967fabf812d171fafb8a,,,,,,,,
,,,,,39.4142,Extremely Unattractive,Extremely  Attractive,mirrored,136_M_M_N_A.png,LCHEEK,0,22.96296296,0.9977,0.018518519,-0.399074074,1,0,0,NextBu,0.553355984,15,0,15,0,1,5c3ee593de04ad0001d91352,M,46,Greek,2022-07-28_17h28.20.765,FaceAttractiveness,2022.2.2,Win32,60.25548325,5c3ee593de04ad0001d91352,62e28ca91edcb69c59d3a195,62e2967fabf812d171fafb8a,,,,,,,,
,,,,,41.2423,Extremely Unattractive,Extremely  Attractive,mirrored,087_M_M_N_A.png,RCHEEK,0,68.05555556,3.4854,0.036111111,-0.406481481,1,0,0,NextBu,0.873127184,16,0,16,0,1,5c3ee593de04ad0001d91352,M,46,Greek,2022-07-28_17h28.20.765,FaceAttractiveness,2022.2.2,Win32,60.25548325,5c3ee593de04ad0001d91352,62e28ca91edcb69c59d3a195,62e2967fabf812d171fafb8a,,,,,,,,
,,,,,45.913,Extremely Unattractive,Extremely  Attractive,mirrored,035_M_F_N_A.png,RCHEEK,0,13.24074074,0.9933,0.047222222,-0.378703704,1,0,0,NextBu,0.645379718,17,0,17,0,1,5c3ee593de04ad0001d91352,M,46,Greek,2022-07-28_17h28.20.765,FaceAttractiveness,2022.2.2,Win32,60.25548325,5c3ee593de04ad0001d91352,62e28ca91edcb69c59d3a195,62e2967fabf812d171fafb8a,,,,,,,,
,,,,,47.8247,Extremely Unattractive,Extremely  Attractive,mirrored,006_M_F_N_A.png,FOREHEAD,0,46.48148148,1.217,0.064814815,-0.400925926,1,0,0,NextBu,0.540064328,18,0,18,0,1,5c3ee593de04ad0001d91352,M,46,Greek,2022-07-28_17h28.20.765,FaceAttractiveness,2022.2.2,Win32,60.25548325,5c3ee593de04ad0001d91352,62e28ca91edcb69c59d3a195,62e2967fabf812d171fafb8a,,,,,,,,
,,,,,49.8477,Extremely Unattractive,Extremely  Attractive,mirrored,CFD_WM_212_097_N.png,NASALTIP,1,44.90740741,1.0638,0.04537037,-0.392592593,1,0,0,NextBu,0.966804307,19,0,19,0,1,5c3ee593de04ad0001d91352,M,46,Greek,2022-07-28_17h28.20.765,FaceAttractiveness,2022.2.2,Win32,60.25548325,5c3ee593de04ad0001d91352,62e28ca91edcb69c59d3a195,62e2967fabf812d171fafb8a,,,,,,,,
,,,,,52.1473,Extremely Unattractive,Extremely  Attractive,mirrored,CFD_WF_250_167_N.png,NASALTIP,1,6.944444444,0.8917,0.056481481,-0.371296296,1,0,0,NextBu,0.753922729,20,0,20,0,1,5c3ee593de04ad0001d91352,M,46,Greek,2022-07-28_17h28.20.765,FaceAttractiveness,2022.2.2,Win32,60.25548325,5c3ee593de04ad0001d91352,62e28ca91edcb69c59d3a195,62e2967fabf812d171fafb8a,,,,,,,,
,,,,,54.1092,Extremely Unattractive,Extremely  Attractive,mirrored,CFD_WF_200_099_N.png,NASALTIP,1,28.51851852,0.966,0.014814815,-0.392592593,1,0,0,NextBu,0.774819427,21,0,21,0,1,5c3ee593de04ad0001d91352,M,46,Greek,2022-07-28_17h28.20.765,FaceAttractiveness,2022.2.2,Win32,60.25548325,5c3ee593de04ad0001d91352,62e28ca91edcb69c59d3a195,62e2967fabf812d171fafb8a,,,,,,,,
,,,,,56.1981,Extremely Unattractive,Extremely  Attractive,mirrored,CFD_WF_002_004_N.png,LCHEEK,1,12.68518519,0.9138,0.021296296,-0.392592593,1,0,0,NextBu,0.757050428,22,0,22,0,1,5c3ee593de04ad0001d91352,M,46,Greek,2022-07-28_17h28.20.765,FaceAttractiveness,2022.2.2,Win32,60.25548325,5c3ee593de04ad0001d91352,62e28ca91edcb69c59d3a195,62e2967fabf812d171fafb8a,,,,,,,,
,,,,,58.1479,Extremely Unattractive,Extremely  Attractive,mirrored,CFD_LM_203_026_N.png,FOREHEAD,1,22.59259259,1.524,0.026851852,-0.387037037,1,0,0,NextBu,0.531537719,23,0,23,0,1,5c3ee593de04ad0001d91352,M,46,Greek,2022-07-28_17h28.20.765,FaceAttractiveness,2022.2.2,Win32,60.25548325,5c3ee593de04ad0001d91352,62e28ca91edcb69c59d3a195,62e2967fabf812d171fafb8a,,,,,,,,
,,,,,60.6071,Extremely Unattractive,Extremely  Attractive,mirrored,CFD_LM_201_057_N.png,NASALTIP,1,31.57407407,0.9213,0.055555556,-0.387962963,1,0,0,NextBu,0.54689947,24,0,24,0,1,5c3ee593de04ad0001d91352,M,46,Greek,2022-07-28_17h28.20.765,FaceAttractiveness,2022.2.2,Win32,60.25548325,5c3ee593de04ad0001d91352,62e28ca91edcb69c59d3a195,62e2967fabf812d171fafb8a,,,,,,,,
,,,,,62.3543,Extremely Unattractive,Extremely  Attractive,mirrored,CFD_LF_224_176_N.png,NASALTIP,1,47.03703704,0.925,0.061111111,-0.402777778,1,0,0,NextBu,0.560475951,25,0,25,0,1,5c3ee593de04ad0001d91352,M,46,Greek,2022-07-28_17h28.20.765,FaceAttractiveness,2022.2.2,Win32,60.25548325,5c3ee593de04ad0001d91352,62e28ca91edcb69c59d3a195,62e2967fabf812d171fafb8a,,,,,,,,
,,,,,64.1483,Extremely Unattractive,Extremely  Attractive,mirrored,CFD_BM_234_172_N.png,NASALTIP,1,28.7962963,1.4467,0.022222222,-0.387962963,1,0,0,NextBu,0.968668992,26,0,26,0,1,5c3ee593de04ad0001d91352,M,46,Greek,2022-07-28_17h28.20.765,FaceAttractiveness,2022.2.2,Win32,60.25548325,5c3ee593de04ad0001d91352,62e28ca91edcb69c59d3a195,62e2967fabf812d171fafb8a,,,,,,,,
,,,,,66.7289,Extremely Unattractive,Extremely  Attractive,mirrored,CFD_BM_213_134_N.png,FOREHEAD,1,6.666666667,0.8856,0.047222222,-0.363888889,1,0,0,NextBu,0.870592135,27,0,27,0,1,5c3ee593de04ad0001d91352,M,46,Greek,2022-07-28_17h28.20.765,FaceAttractiveness,2022.2.2,Win32,60.25548325,5c3ee593de04ad0001d91352,62e28ca91edcb69c59d3a195,62e2967fabf812d171fafb8a,,,,,,,,
,,,,,68.766,Extremely Unattractive,Extremely  Attractive,mirrored,CFD_BF_224_002_N.png,FOREHEAD,1,8.148148148,0.8958,-0.002777778,-0.377777778,1,0,0,NextBu,0.713969186,28,0,28,0,1,5c3ee593de04ad0001d91352,M,46,Greek,2022-07-28_17h28.20.765,FaceAttractiveness,2022.2.2,Win32,60.25548325,5c3ee593de04ad0001d91352,62e28ca91edcb69c59d3a195,62e2967fabf812d171fafb8a,,,,,,,,
,,,,,70.6469,Extremely Unattractive,Extremely  Attractive,mirrored,CFD_BF_214_308_N.png,FOREHEAD,1,46.66666667,0.9608,0.015740741,-0.390740741,1,0,0,NextBu,0.596192353,29,0,29,0,1,5c3ee593de04ad0001d91352,M,46,Greek,2022-07-28_17h28.20.765,FaceAttractiveness,2022.2.2,Win32,60.25548325,5c3ee593de04ad0001d91352,62e28ca91edcb69c59d3a195,62e2967fabf812d171fafb8a,,,,,,,,
,,,,,72.5581,Extremely Unattractive,Extremely  Attractive,mirrored,CFD_AM_233_236_N.png,RCHEEK,1,11.57407407,0.9069,0.002777778,-0.377777778,1,0,0,NextBu,0.607405866,30,0,30,0,1,5c3ee593de04ad0001d91352,M,46,Greek,2022-07-28_17h28.20.765,FaceAttractiveness,2022.2.2,Win32,60.25548325,5c3ee593de04ad0001d91352,62e28ca91edcb69c59d3a195,62e2967fabf812d171fafb8a,,,,,,,,
,,,,,74.3009,Extremely Unattractive,Extremely  Attractive,mirrored,CFD_AF_245_143_N.png,RCHEEK,1,26.48148148,0.9115,0.02037037,-0.400925926,1,0,0,NextBu,0.816778877,31,0,31,0,1,5c3ee593de04ad0001d91352,M,46,Greek,2022-07-28_17h28.20.765,FaceAttractiveness,2022.2.2,Win32,60.25548325,5c3ee593de04ad0001d91352,62e28ca91edcb69c59d3a195,62e2967fabf812d171fafb8a,,,,,,,,
,,,,,76.2917,Extremely Unattractive,Extremely  Attractive,mirrored,CFD_AF_237_223_N.png,LIP,1,42.87037037,0.9305,0.017592593,-0.358333333,1,0,0,NextBu,0.701314506,32,0,32,0,1,5c3ee593de04ad0001d91352,M,46,Greek,2022-07-28_17h28.20.765,FaceAttractiveness,2022.2.2,Win32,60.25548325,5c3ee593de04ad0001d91352,62e28ca91edcb69c59d3a195,62e2967fabf812d171fafb8a,,,,,,,,
,,,,,78.1607,Extremely Unattractive,Extremely  Attractive,mirrored,CFD_AF_231_357_N.png,FOREHEAD,1,11.01851852,0.8852,-0.005555556,-0.378703704,1,0,0,NextBu,0.798974893,33,0,33,0,1,5c3ee593de04ad0001d91352,M,46,Greek,2022-07-28_17h28.20.765,FaceAttractiveness,2022.2.2,Win32,60.25548325,5c3ee593de04ad0001d91352,62e28ca91edcb69c59d3a195,62e2967fabf812d171fafb8a,,,,,,,,
,,,,,80.085,Extremely Unattractive,Extremely  Attractive,mirrored,136_M_M_N_A.png,RCHEEK,1,21.66666667,0.8458,0.011111111,-0.4,1,0,0,NextBu,0.719354424,34,0,34,0,1,5c3ee593de04ad0001d91352,M,46,Greek,2022-07-28_17h28.20.765,FaceAttractiveness,2022.2.2,Win32,60.25548325,5c3ee593de04ad0001d91352,62e28ca91edcb69c59d3a195,62e2967fabf812d171fafb8a,,,,,,,,
,,,,,81.8508,Extremely Unattractive,Extremely  Attractive,mirrored,087_M_M_N_A.png,LCHEEK,1,65.09259259,1.0253,0.064814815,-0.378703704,1,0,0,NextBu,0.917159095,35,0,35,0,1,5c3ee593de04ad0001d91352,M,46,Greek,2022-07-28_17h28.20.765,FaceAttractiveness,2022.2.2,Win32,60.25548325,5c3ee593de04ad0001d91352,62e28ca91edcb69c59d3a195,62e2967fabf812d171fafb8a,,,,,,,,
,,,,,84.1293,Extremely Unattractive,Extremely  Attractive,mirrored,035_M_F_N_A.png,NASALTIP,1,11.66666667,0.8169,-0.010185185,-0.384259259,1,0,0,NextBu,0.930265515,36,0,36,0,1,5c3ee593de04ad0001d91352,M,46,Greek,2022-07-28_17h28.20.765,FaceAttractiveness,2022.2.2,Win32,60.25548325,5c3ee593de04ad0001d91352,62e28ca91edcb69c59d3a195,62e2967fabf812d171fafb8a,,,,,,,,
,,,,,86.0516,Extremely Unattractive,Extremely  Attractive,mirrored,006_M_F_N_A.png,LCHEEK,1,47.03703704,0.9459,0.027777778,-0.39537037,1,0,0,NextBu,0.642796114,37,0,37,0,1,5c3ee593de04ad0001d91352,M,46,Greek,2022-07-28_17h28.20.765,FaceAttractiveness,2022.2.2,Win32,60.25548325,5c3ee593de04ad0001d91352,62e28ca91edcb69c59d3a195,62e2967fabf812d171fafb8a,,,,,,,,
,,,,,87.8346,Extremely Unattractive,Extremely  Attractive,mirrored,CFD_WM_212_097_N.png,LIP,2,44.72222222,0.9921,0.018518519,-0.409259259,1,0,0,NextBu,0.741836782,38,0,38,0,1,5c3ee593de04ad0001d91352,M,46,Greek,2022-07-28_17h28.20.765,FaceAttractiveness,2022.2.2,Win32,60.25548325,5c3ee593de04ad0001d91352,62e28ca91edcb69c59d3a195,62e2967fabf812d171fafb8a,,,,,,,,
,,,,,89.7952,Extremely Unattractive,Extremely  Attractive,mirrored,CFD_WF_250_167_N.png,LCHEEK,2,2.777777778,1.624,0.066666667,-0.37962963,1,0,0,NextBu,0.547986398,39,0,39,0,1,5c3ee593de04ad0001d91352,M,46,Greek,2022-07-28_17h28.20.765,FaceAttractiveness,2022.2.2,Win32,60.25548325,5c3ee593de04ad0001d91352,62e28ca91edcb69c59d3a195,62e2967fabf812d171fafb8a,,,,,,,,
,,,,,92.3398,Extremely Unattractive,Extremely  Attractive,mirrored,CFD_WF_200_099_N.png,FOREHEAD,2,21.94444444,0.9415,0.003703704,-0.394444444,1,0,0,NextBu,0.89346389,40,0,40,0,1,5c3ee593de04ad0001d91352,M,46,Greek,2022-07-28_17h28.20.765,FaceAttractiveness,2022.2.2,Win32,60.25548325,5c3ee593de04ad0001d91352,62e28ca91edcb69c59d3a195,62e2967fabf812d171fafb8a,,,,,,,,
,,,,,94.5676,Extremely Unattractive,Extremely  Attractive,mirrored,CFD_WF_002_004_N.png,FOREHEAD,2,7.962962963,0.878,-0.017592593,-0.388888889,1,0,0,NextBu,0.588123738,41,0,41,0,1,5c3ee593de04ad0001d91352,M,46,Greek,2022-07-28_17h28.20.765,FaceAttractiveness,2022.2.2,Win32,60.25548325,5c3ee593de04ad0001d91352,62e28ca91edcb69c59d3a195,62e2967fabf812d171fafb8a,,,,,,,,
,,,,,96.2619,Extremely Unattractive,Extremely  Attractive,mirrored,CFD_LM_203_026_N.png,LIP,2,28.42592593,0.9068,0.012037037,-0.406481481,1,0,0,NextBu,0.824901596,42,0,42,0,1,5c3ee593de04ad0001d91352,M,46,Greek,2022-07-28_17h28.20.765,FaceAttractiveness,2022.2.2,Win32,60.25548325,5c3ee593de04ad0001d91352,62e28ca91edcb69c59d3a195,62e2967fabf812d171fafb8a,,,,,,,,
,,,,,98.2694,Extremely Unattractive,Extremely  Attractive,mirrored,CFD_LM_201_057_N.png,LCHEEK,2,41.2962963,1.451,0.002777778,-0.409259259,1,0,0,NextBu,0.554086302,43,0,43,0,1,5c3ee593de04ad0001d91352,M,46,Greek,2022-07-28_17h28.20.765,FaceAttractiveness,2022.2.2,Win32,60.25548325,5c3ee593de04ad0001d91352,62e28ca91edcb69c59d3a195,62e2967fabf812d171fafb8a,,,,,,,,
,,,,,100.5665,Extremely Unattractive,Extremely  Attractive,mirrored,CFD_LF_224_176_N.png,LCHEEK,2,45.18518519,0.9279,0.02037037,-0.387962963,1,0,0,NextBu,0.575494862,44,0,44,0,1,5c3ee593de04ad0001d91352,M,46,Greek,2022-07-28_17h28.20.765,FaceAttractiveness,2022.2.2,Win32,60.25548325,5c3ee593de04ad0001d91352,62e28ca91edcb69c59d3a195,62e2967fabf812d171fafb8a,,,,,,,,
,,,,,102.3963,Extremely Unattractive,Extremely  Attractive,mirrored,CFD_BM_234_172_N.png,FOREHEAD,2,29.72222222,0.8682,0.013888889,-0.39537037,1,0,0,NextBu,0.567990966,45,0,45,0,1,5c3ee593de04ad0001d91352,M,46,Greek,2022-07-28_17h28.20.765,FaceAttractiveness,2022.2.2,Win32,60.25548325,5c3ee593de04ad0001d91352,62e28ca91edcb69c59d3a195,62e2967fabf812d171fafb8a,,,,,,,,
,,,,,104.1533,Extremely Unattractive,Extremely  Attractive,mirrored,CFD_BM_213_134_N.png,RCHEEK,2,5.092592593,0.8961,0.041666667,-0.376851852,1,0,0,NextBu,0.570514508,46,0,46,0,1,5c3ee593de04ad0001d91352,M,46,Greek,2022-07-28_17h28.20.765,FaceAttractiveness,2022.2.2,Win32,60.25548325,5c3ee593de04ad0001d91352,62e28ca91edcb69c59d3a195,62e2967fabf812d171fafb8a,,,,,,,,
,,,,,105.9686,Extremely Unattractive,Extremely  Attractive,mirrored,CFD_BF_224_002_N.png,RCHEEK,2,7.592592593,0.8592,0.049074074,-0.377777778,1,0,0,NextBu,0.667667945,47,0,47,0,1,5c3ee593de04ad0001d91352,M,46,Greek,2022-07-28_17h28.20.765,FaceAttractiveness,2022.2.2,Win32,60.25548325,5c3ee593de04ad0001d91352,62e28ca91edcb69c59d3a195,62e2967fabf812d171fafb8a,,,,,,,,
,,,,,107.8636,Extremely Unattractive,Extremely  Attractive,mirrored,CFD_BF_214_308_N.png,RCHEEK,2,45.18518519,0.9685,0.010185185,-0.403703704,1,0,0,NextBu,0.705477422,48,0,48,0,1,5c3ee593de04ad0001d91352,M,46,Greek,2022-07-28_17h28.20.765,FaceAttractiveness,2022.2.2,Win32,60.25548325,5c3ee593de04ad0001d91352,62e28ca91edcb69c59d3a195,62e2967fabf812d171fafb8a,,,,,,,,
,,,,,109.9047,Extremely Unattractive,Extremely  Attractive,mirrored,CFD_AM_233_236_N.png,LCHEEK,2,10.27777778,0.9121,0.023148148,-0.389814815,1,0,0,NextBu,0.789451281,49,0,49,0,1,5c3ee593de04ad0001d91352,M,46,Greek,2022-07-28_17h28.20.765,FaceAttractiveness,2022.2.2,Win32,60.25548325,5c3ee593de04ad0001d91352,62e28ca91edcb69c59d3a195,62e2967fabf812d171fafb8a,,,,,,,,
,,,,,111.8692,Extremely Unattractive,Extremely  Attractive,mirrored,CFD_AF_245_143_N.png,LIP,2,26.01851852,0.91,-0.005555556,-0.407407407,1,0,0,NextBu,0.644215447,50,0,50,0,1,5c3ee593de04ad0001d91352,M,46,Greek,2022-07-28_17h28.20.765,FaceAttractiveness,2022.2.2,Win32,60.25548325,5c3ee593de04ad0001d91352,62e28ca91edcb69c59d3a195,62e2967fabf812d171fafb8a,,,,,,,,
,,,,,113.7817,Extremely Unattractive,Extremely  Attractive,mirrored,CFD_AF_237_223_N.png,NASALTIP,2,38.61111111,0.802,0.026851852,-0.372222222,1,0,0,NextBu,0.766765972,51,0,51,0,1,5c3ee593de04ad0001d91352,M,46,Greek,2022-07-28_17h28.20.765,FaceAttractiveness,2022.2.2,Win32,60.25548325,5c3ee593de04ad0001d91352,62e28ca91edcb69c59d3a195,62e2967fabf812d171fafb8a,,,,,,,,
,,,,,115.5717,Extremely Unattractive,Extremely  Attractive,mirrored,CFD_AF_231_357_N.png,RCHEEK,2,15.18518519,0.9435,-0.021296296,-0.373148148,1,0,0,NextBu,0.934859164,52,0,52,0,1,5c3ee593de04ad0001d91352,M,46,Greek,2022-07-28_17h28.20.765,FaceAttractiveness,2022.2.2,Win32,60.25548325,5c3ee593de04ad0001d91352,62e28ca91edcb69c59d3a195,62e2967fabf812d171fafb8a,,,,,,,,
,,,,,117.654,Extremely Unattractive,Extremely  Attractive,mirrored,136_M_M_N_A.png,NASALTIP,2,22.31481481,0.8597,0.021296296,-0.400925926,1,0,0,NextBu,0.798830319,53,0,53,0,1,5c3ee593de04ad0001d91352,M,46,Greek,2022-07-28_17h28.20.765,FaceAttractiveness,2022.2.2,Win32,60.25548325,5c3ee593de04ad0001d91352,62e28ca91edcb69c59d3a195,62e2967fabf812d171fafb8a,,,,,,,,
,,,,,119.4822,Extremely Unattractive,Extremely  Attractive,mirrored,087_M_M_N_A.png,LIP,2,64.16666667,1.0308,-0.002777778,-0.390740741,1,0,0,NextBu,0.99997483,54,0,54,0,1,5c3ee593de04ad0001d91352,M,46,Greek,2022-07-28_17h28.20.765,FaceAttractiveness,2022.2.2,Win32,60.25548325,5c3ee593de04ad0001d91352,62e28ca91edcb69c59d3a195,62e2967fabf812d171fafb8a,,,,,,,,
,,,,,121.8388,Extremely Unattractive,Extremely  Attractive,mirrored,035_M_F_N_A.png,LIP,2,15,0.8467,0.02037037,-0.387962963,1,0,0,NextBu,0.968374344,55,0,55,0,1,5c3ee593de04ad0001d91352,M,46,Greek,2022-07-28_17h28.20.765,FaceAttractiveness,2022.2.2,Win32,60.25548325,5c3ee593de04ad0001d91352,62e28ca91edcb69c59d3a195,62e2967fabf812d171fafb8a,,,,,,,,
,,,,,123.8379,Extremely Unattractive,Extremely  Attractive,mirrored,006_M_F_N_A.png,LIP,2,46.75925926,0.8751,0.005555556,-0.37962963,1,0,0,NextBu,0.903305046,56,0,56,0,1,5c3ee593de04ad0001d91352,M,46,Greek,2022-07-28_17h28.20.765,FaceAttractiveness,2022.2.2,Win32,60.25548325,5c3ee593de04ad0001d91352,62e28ca91edcb69c59d3a195,62e2967fabf812d171fafb8a,,,,,,,,
,,,,,125.9315,Extremely Unattractive,Extremely  Attractive,mirrored,CFD_WM_212_097_N.png,LCHEEK,3,35.74074074,0.8535,0.017592593,-0.388888889,1,0,0,NextBu,0.88792848,57,0,57,0,1,5c3ee593de04ad0001d91352,M,46,Greek,2022-07-28_17h28.20.765,FaceAttractiveness,2022.2.2,Win32,60.25548325,5c3ee593de04ad0001d91352,62e28ca91edcb69c59d3a195,62e2967fabf812d171fafb8a,,,,,,,,
,,,,,127.8242,Extremely Unattractive,Extremely  Attractive,mirrored,CFD_WF_250_167_N.png,FOREHEAD,3,3.055555556,0.8436,0.048148148,-0.387037037,1,0,0,NextBu,0.775905998,58,0,58,0,1,5c3ee593de04ad0001d91352,M,46,Greek,2022-07-28_17h28.20.765,FaceAttractiveness,2022.2.2,Win32,60.25548325,5c3ee593de04ad0001d91352,62e28ca91edcb69c59d3a195,62e2967fabf812d171fafb8a,,,,,,,,
,,,,,129.8049,Extremely Unattractive,Extremely  Attractive,mirrored,CFD_WF_200_099_N.png,LCHEEK,3,23.33333333,0.8926,0.042592593,-0.407407407,1,0,0,NextBu,0.682915156,59,0,59,0,1,5c3ee593de04ad0001d91352,M,46,Greek,2022-07-28_17h28.20.765,FaceAttractiveness,2022.2.2,Win32,60.25548325,5c3ee593de04ad0001d91352,62e28ca91edcb69c59d3a195,62e2967fabf812d171fafb8a,,,,,,,,
,,,,,131.6838,Extremely Unattractive,Extremely  Attractive,mirrored,CFD_WF_002_004_N.png,NASALTIP,3,9.814814815,0.8499,0,-0.39537037,1,0,0,NextBu,0.891828841,60,0,60,0,1,5c3ee593de04ad0001d91352,M,46,Greek,2022-07-28_17h28.20.765,FaceAttractiveness,2022.2.2,Win32,60.25548325,5c3ee593de04ad0001d91352,62e28ca91edcb69c59d3a195,62e2967fabf812d171fafb8a,,,,,,,,
,,,,,133.6564,Extremely Unattractive,Extremely  Attractive,mirrored,CFD_LM_203_026_N.png,LCHEEK,3,27.68518519,0.8672,0.010185185,-0.391666667,1,0,0,NextBu,0.931645717,61,0,61,0,1,5c3ee593de04ad0001d91352,M,46,Greek,2022-07-28_17h28.20.765,FaceAttractiveness,2022.2.2,Win32,60.25548325,5c3ee593de04ad0001d91352,62e28ca91edcb69c59d3a195,62e2967fabf812d171fafb8a,,,,,,,,
,,,,,135.64,Extremely Unattractive,Extremely  Attractive,mirrored,CFD_LM_201_057_N.png,FOREHEAD,3,40.74074074,0.8416,0.019444444,-0.387037037,1,0,0,NextBu,0.59089359,62,0,62,0,1,5c3ee593de04ad0001d91352,M,46,Greek,2022-07-28_17h28.20.765,FaceAttractiveness,2022.2.2,Win32,60.25548325,5c3ee593de04ad0001d91352,62e28ca91edcb69c59d3a195,62e2967fabf812d171fafb8a,,,,,,,,
,,,,,137.2683,Extremely Unattractive,Extremely  Attractive,mirrored,CFD_LF_224_176_N.png,FOREHEAD,3,47.40740741,0.8925,0.041666667,-0.409259259,1,0,0,NextBu,0.623929548,63,0,63,0,1,5c3ee593de04ad0001d91352,M,46,Greek,2022-07-28_17h28.20.765,FaceAttractiveness,2022.2.2,Win32,60.25548325,5c3ee593de04ad0001d91352,62e28ca91edcb69c59d3a195,62e2967fabf812d171fafb8a,,,,,,,,
,,,,,139.0895,Extremely Unattractive,Extremely  Attractive,mirrored,CFD_BM_234_172_N.png,LCHEEK,3,35.64814815,0.8365,0.011111111,-0.411111111,1,0,0,NextBu,0.943386492,64,0,64,0,1,5c3ee593de04ad0001d91352,M,46,Greek,2022-07-28_17h28.20.765,FaceAttractiveness,2022.2.2,Win32,60.25548325,5c3ee593de04ad0001d91352,62e28ca91edcb69c59d3a195,62e2967fabf812d171fafb8a,,,,,,,,
,,,,,141.1081,Extremely Unattractive,Extremely  Attractive,mirrored,CFD_BM_213_134_N.png,LCHEEK,3,3.518518519,0.8925,0.043518519,-0.387037037,1,0,0,NextBu,0.816930145,65,0,65,0,1,5c3ee593de04ad0001d91352,M,46,Greek,2022-07-28_17h28.20.765,FaceAttractiveness,2022.2.2,Win32,60.25548325,5c3ee593de04ad0001d91352,62e28ca91edcb69c59d3a195,62e2967fabf812d171fafb8a,,,,,,,,
,,,,,143.1359,Extremely Unattractive,Extremely  Attractive,mirrored,CFD_BF_224_002_N.png,LIP,3,9.351851852,0.893,0.016666667,-0.391666667,1,0,0,NextBu,0.541197796,66,0,66,0,1,5c3ee593de04ad0001d91352,M,46,Greek,2022-07-28_17h28.20.765,FaceAttractiveness,2022.2.2,Win32,60.25548325,5c3ee593de04ad0001d91352,62e28ca91edcb69c59d3a195,62e2967fabf812d171fafb8a,,,,,,,,
,,,,,144.9235,Extremely Unattractive,Extremely  Attractive,mirrored,CFD_BF_214_308_N.png,LIP,3,48.14814815,1.0314,0.033333333,-0.393518519,1,0,0,NextBu,0.805017839,67,0,67,0,1,5c3ee593de04ad0001d91352,M,46,Greek,2022-07-28_17h28.20.765,FaceAttractiveness,2022.2.2,Win32,60.25548325,5c3ee593de04ad0001d91352,62e28ca91edcb69c59d3a195,62e2967fabf812d171fafb8a,,,,,,,,
,,,,,147.075,Extremely Unattractive,Extremely  Attractive,mirrored,CFD_AM_233_236_N.png,NASALTIP,3,10.64814815,0.8438,0.023148148,-0.37037037,1,0,0,NextBu,0.875691729,68,0,68,0,1,5c3ee593de04ad0001d91352,M,46,Greek,2022-07-28_17h28.20.765,FaceAttractiveness,2022.2.2,Win32,60.25548325,5c3ee593de04ad0001d91352,62e28ca91edcb69c59d3a195,62e2967fabf812d171fafb8a,,,,,,,,
,,,,,149.0532,Extremely Unattractive,Extremely  Attractive,mirrored,CFD_AF_245_143_N.png,LCHEEK,3,22.68518519,0.7931,0.012037037,-0.391666667,1,0,0,NextBu,0.85827213,69,0,69,0,1,5c3ee593de04ad0001d91352,M,46,Greek,2022-07-28_17h28.20.765,FaceAttractiveness,2022.2.2,Win32,60.25548325,5c3ee593de04ad0001d91352,62e28ca91edcb69c59d3a195,62e2967fabf812d171fafb8a,,,,,,,,
,,,,,150.9075,Extremely Unattractive,Extremely  Attractive,mirrored,CFD_AF_237_223_N.png,LCHEEK,3,35.18518519,0.7817,0.012962963,-0.40462963,1,0,0,NextBu,0.780220328,70,0,70,0,1,5c3ee593de04ad0001d91352,M,46,Greek,2022-07-28_17h28.20.765,FaceAttractiveness,2022.2.2,Win32,60.25548325,5c3ee593de04ad0001d91352,62e28ca91edcb69c59d3a195,62e2967fabf812d171fafb8a,,,,,,,,
,,,,,152.7118,Extremely Unattractive,Extremely  Attractive,mirrored,CFD_AF_231_357_N.png,LIP,3,17.68518519,1.5725,0.024074074,-0.400925926,1,0,0,NextBu,0.699211798,71,0,71,0,1,5c3ee593de04ad0001d91352,M,46,Greek,2022-07-28_17h28.20.765,FaceAttractiveness,2022.2.2,Win32,60.25548325,5c3ee593de04ad0001d91352,62e28ca91edcb69c59d3a195,62e2967fabf812d171fafb8a,,,,,,,,
,,,,,155.1862,Extremely Unattractive,Extremely  Attractive,mirrored,136_M_M_N_A.png,FOREHEAD,3,25.27777778,0.8598,0.016666667,-0.394444444,1,0,0,NextBu,0.724426961,72,0,72,0,1,5c3ee593de04ad0001d91352,M,46,Greek,2022-07-28_17h28.20.765,FaceAttractiveness,2022.2.2,Win32,60.25548325,5c3ee593de04ad0001d91352,62e28ca91edcb69c59d3a195,62e2967fabf812d171fafb8a,,,,,,,,
,,,,,157.1084,Extremely Unattractive,Extremely  Attractive,mirrored,087_M_M_N_A.png,NASALTIP,3,63.7037037,0.9473,0.025,-0.382407407,1,0,0,NextBu,0.574243557,73,0,73,0,1,5c3ee593de04ad0001d91352,M,46,Greek,2022-07-28_17h28.20.765,FaceAttractiveness,2022.2.2,Win32,60.25548325,5c3ee593de04ad0001d91352,62e28ca91edcb69c59d3a195,62e2967fabf812d171fafb8a,,,,,,,,
,,,,,158.9276,Extremely Unattractive,Extremely  Attractive,mirrored,035_M_F_N_A.png,LCHEEK,3,13.14814815,0.8419,0.000925926,-0.381481481,1,0,0,NextBu,0.849698359,74,0,74,0,1,5c3ee593de04ad0001d91352,M,46,Greek,2022-07-28_17h28.20.765,FaceAttractiveness,2022.2.2,Win32,60.25548325,5c3ee593de04ad0001d91352,62e28ca91edcb69c59d3a195,62e2967fabf812d171fafb8a,,,,,,,,
,,,,,160.8713,Extremely Unattractive,Extremely  Attractive,mirrored,006_M_F_N_A.png,NASALTIP,3,49.16666667,1.0092,0.043518519,-0.417592593,1,0,0,NextBu,0.710037529,75,0,75,0,1,5c3ee593de04ad0001d91352,M,46,Greek,2022-07-28_17h28.20.765,FaceAttractiveness,2022.2.2,Win32,60.25548325,5c3ee593de04ad0001d91352,62e28ca91edcb69c59d3a195,62e2967fabf812d171fafb8a,,,,,,,,
,,,,,162.8932,Extremely Unattractive,Extremely  Attractive,mirrored,CFD_WM_212_097_N.png,FOREHEAD,4,38.7037037,0.9138,-0.010185185,-0.381481481,1,0,0,NextBu,0.702168748,76,0,76,0,1,5c3ee593de04ad0001d91352,M,46,Greek,2022-07-28_17h28.20.765,FaceAttractiveness,2022.2.2,Win32,60.25548325,5c3ee593de04ad0001d91352,62e28ca91edcb69c59d3a195,62e2967fabf812d171fafb8a,,,,,,,,
,,,,,164.7105,Extremely Unattractive,Extremely  Attractive,mirrored,CFD_WF_250_167_N.png,LIP,4,1.944444444,0.9108,0.048148148,-0.387037037,1,0,0,NextBu,0.980250238,77,0,77,0,1,5c3ee593de04ad0001d91352,M,46,Greek,2022-07-28_17h28.20.765,FaceAttractiveness,2022.2.2,Win32,60.25548325,5c3ee593de04ad0001d91352,62e28ca91edcb69c59d3a195,62e2967fabf812d171fafb8a,,,,,,,,
,,,,,166.9323,Extremely Unattractive,Extremely  Attractive,mirrored,CFD_WF_200_099_N.png,LIP,4,23.24074074,0.8987,-0.02037037,-0.390740741,1,0,0,NextBu,0.933980244,78,0,78,0,1,5c3ee593de04ad0001d91352,M,46,Greek,2022-07-28_17h28.20.765,FaceAttractiveness,2022.2.2,Win32,60.25548325,5c3ee593de04ad0001d91352,62e28ca91edcb69c59d3a195,62e2967fabf812d171fafb8a,,,,,,,,
,,,,,168.9447,Extremely Unattractive,Extremely  Attractive,mirrored,CFD_WF_002_004_N.png,RCHEEK,4,10.18518519,0.8958,0.026851852,-0.372222222,1,0,0,NextBu,0.631377721,79,0,79,0,1,5c3ee593de04ad0001d91352,M,46,Greek,2022-07-28_17h28.20.765,FaceAttractiveness,2022.2.2,Win32,60.25548325,5c3ee593de04ad0001d91352,62e28ca91edcb69c59d3a195,62e2967fabf812d171fafb8a,,,,,,,,
,,,,,170.7612,Extremely Unattractive,Extremely  Attractive,mirrored,CFD_LM_203_026_N.png,NASALTIP,4,28.61111111,0.8587,0.012037037,-0.393518519,1,0,0,NextBu,0.697779356,80,0,80,0,1,5c3ee593de04ad0001d91352,M,46,Greek,2022-07-28_17h28.20.765,FaceAttractiveness,2022.2.2,Win32,60.25548325,5c3ee593de04ad0001d91352,62e28ca91edcb69c59d3a195,62e2967fabf812d171fafb8a,,,,,,,,
,,,,,172.557,Extremely Unattractive,Extremely  Attractive,mirrored,CFD_LM_201_057_N.png,RCHEEK,4,36.01851852,0.9258,0.042592593,-0.394444444,1,0,0,NextBu,0.918003317,81,0,81,0,1,5c3ee593de04ad0001d91352,M,46,Greek,2022-07-28_17h28.20.765,FaceAttractiveness,2022.2.2,Win32,60.25548325,5c3ee593de04ad0001d91352,62e28ca91edcb69c59d3a195,62e2967fabf812d171fafb8a,,,,,,,,
,,,,,174.5926,Extremely Unattractive,Extremely  Attractive,mirrored,CFD_LF_224_176_N.png,RCHEEK,4,44.16666667,0.9154,0.026851852,-0.388888889,1,0,0,NextBu,0.843115098,82,0,82,0,1,5c3ee593de04ad0001d91352,M,46,Greek,2022-07-28_17h28.20.765,FaceAttractiveness,2022.2.2,Win32,60.25548325,5c3ee593de04ad0001d91352,62e28ca91edcb69c59d3a195,62e2967fabf812d171fafb8a,,,,,,,,
,,,,,176.5954,Extremely Unattractive,Extremely  Attractive,mirrored,CFD_BM_234_172_N.png,RCHEEK,4,35.27777778,0.8097,0.014814815,-0.390740741,1,0,0,NextBu,0.803507381,83,0,83,0,1,5c3ee593de04ad0001d91352,M,46,Greek,2022-07-28_17h28.20.765,FaceAttractiveness,2022.2.2,Win32,60.25548325,5c3ee593de04ad0001d91352,62e28ca91edcb69c59d3a195,62e2967fabf812d171fafb8a,,,,,,,,
,,,,,178.3749,Extremely Unattractive,Extremely  Attractive,mirrored,CFD_BM_213_134_N.png,LIP,4,3.611111111,0.8745,0.048148148,-0.362962963,1,0,0,NextBu,0.78716586,84,0,84,0,1,5c3ee593de04ad0001d91352,M,46,Greek,2022-07-28_17h28.20.765,FaceAttractiveness,2022.2.2,Win32,60.25548325,5c3ee593de04ad0001d91352,62e28ca91edcb69c59d3a195,62e2967fabf812d171fafb8a,,,,,,,,
,,,,,180.3444,Extremely Unattractive,Extremely  Attractive,mirrored,CFD_BF_224_002_N.png,LCHEEK,4,8.981481481,0.8151,-0.023148148,-0.375925926,1,0,0,NextBu,0.87836455,85,0,85,0,1,5c3ee593de04ad0001d91352,M,46,Greek,2022-07-28_17h28.20.765,FaceAttractiveness,2022.2.2,Win32,60.25548325,5c3ee593de04ad0001d91352,62e28ca91edcb69c59d3a195,62e2967fabf812d171fafb8a,,,,,,,,
,,,,,182.3135,Extremely Unattractive,Extremely  Attractive,mirrored,CFD_BF_214_308_N.png,LCHEEK,4,48.33333333,0.9098,0.003703704,-0.393518519,1,0,0,NextBu,0.998631816,86,0,86,0,1,5c3ee593de04ad0001d91352,M,46,Greek,2022-07-28_17h28.20.765,FaceAttractiveness,2022.2.2,Win32,60.25548325,5c3ee593de04ad0001d91352,62e28ca91edcb69c59d3a195,62e2967fabf812d171fafb8a,,,,,,,,
,,,,,184.5412,Extremely Unattractive,Extremely  Attractive,mirrored,CFD_AM_233_236_N.png,LIP,4,17.68518519,0.8301,0.00462963,-0.388888889,1,0,0,NextBu,0.521926237,87,0,87,0,1,5c3ee593de04ad0001d91352,M,46,Greek,2022-07-28_17h28.20.765,FaceAttractiveness,2022.2.2,Win32,60.25548325,5c3ee593de04ad0001d91352,62e28ca91edcb69c59d3a195,62e2967fabf812d171fafb8a,,,,,,,,
,,,,,186.0754,Extremely Unattractive,Extremely  Attractive,mirrored,CFD_AF_245_143_N.png,NASALTIP,4,27.12962963,0.9184,0.014814815,-0.388888889,1,0,0,NextBu,0.664381005,88,0,88,0,1,5c3ee593de04ad0001d91352,M,46,Greek,2022-07-28_17h28.20.765,FaceAttractiveness,2022.2.2,Win32,60.25548325,5c3ee593de04ad0001d91352,62e28ca91edcb69c59d3a195,62e2967fabf812d171fafb8a,,,,,,,,
,,,,,187.8958,Extremely Unattractive,Extremely  Attractive,mirrored,CFD_AF_237_223_N.png,RCHEEK,4,39.07407407,0.7785,0.007407407,-0.387962963,1,0,0,NextBu,0.949052973,89,0,89,0,1,5c3ee593de04ad0001d91352,M,46,Greek,2022-07-28_17h28.20.765,FaceAttractiveness,2022.2.2,Win32,60.25548325,5c3ee593de04ad0001d91352,62e28ca91edcb69c59d3a195,62e2967fabf812d171fafb8a,,,,,,,,
,,,,,189.8442,Extremely Unattractive,Extremely  Attractive,mirrored,CFD_AF_231_357_N.png,NASALTIP,4,21.48148148,1.5105,-0.000925926,-0.37962963,1,0,0,NextBu,0.955130896,90,0,90,0,1,5c3ee593de04ad0001d91352,M,46,Greek,2022-07-28_17h28.20.765,FaceAttractiveness,2022.2.2,Win32,60.25548325,5c3ee593de04ad0001d91352,62e28ca91edcb69c59d3a195,62e2967fabf812d171fafb8a,,,,,,,,
,,,,,192.4281,Extremely Unattractive,Extremely  Attractive,mirrored,136_M_M_N_A.png,LIP,4,28.98148148,0.8988,0.012037037,-0.387037037,1,0,0,NextBu,0.815348666,91,0,91,0,1,5c3ee593de04ad0001d91352,M,46,Greek,2022-07-28_17h28.20.765,FaceAttractiveness,2022.2.2,Win32,60.25548325,5c3ee593de04ad0001d91352,62e28ca91edcb69c59d3a195,62e2967fabf812d171fafb8a,,,,,,,,
,,,,,194.4478,Extremely Unattractive,Extremely  Attractive,mirrored,087_M_M_N_A.png,FOREHEAD,4,66.38888889,0.8758,0.012037037,-0.40462963,1,0,0,NextBu,0.753356861,92,0,92,0,1,5c3ee593de04ad0001d91352,M,46,Greek,2022-07-28_17h28.20.765,FaceAttractiveness,2022.2.2,Win32,60.25548325,5c3ee593de04ad0001d91352,62e28ca91edcb69c59d3a195,62e2967fabf812d171fafb8a,,,,,,,,
,,,,,196.3777,Extremely Unattractive,Extremely  Attractive,mirrored,035_M_F_N_A.png,FOREHEAD,4,13.14814815,0.8213,0.012037037,-0.37962963,1,0,0,NextBu,0.911758777,93,0,93,0,1,5c3ee593de04ad0001d91352,M,46,Greek,2022-07-28_17h28.20.765,FaceAttractiveness,2022.2.2,Win32,60.25548325,5c3ee593de04ad0001d91352,62e28ca91edcb69c59d3a195,62e2967fabf812d171fafb8a,,,,,,,,
,,,,,198.3299,Extremely Unattractive,Extremely  Attractive,mirrored,006_M_F_N_A.png,RCHEEK,4,49.07407407,1.0985,0.046296296,-0.409259259,1,0,0,NextBu,0.830093144,94,0,94,0,1,5c3ee593de04ad0001d91352,M,46,Greek,2022-07-28_17h28.20.765,FaceAttractiveness,2022.2.2,Win32,60.25548325,5c3ee593de04ad0001d91352,62e28ca91edcb69c59d3a195,62e2967fabf812d171fafb8a,,,,,,,,
,,,,,,,,,,,,,,,,,,,,,,,,,,5c3ee593de04ad0001d91352,M,46,Greek,2022-07-28_17h28.20.765,FaceAttractiveness,2022.2.2,Win32,60.25548325,5c3ee593de04ad0001d91352,62e28ca91edcb69c59d3a195,62e2967fabf812d171fafb8a,0,0,0,0,1,Attractiveness,Extremely  Attractive,Extremely Unattractive
,,,,,,,,,,,,,,,,,,,,,,,,,,5c3ee593de04ad0001d91352,M,46,Greek,2022-07-28_17h28.20.765,FaceAttractiveness,2022.2.2,Win32,60.25548325,5c3ee593de04ad0001d91352,62e28ca91edcb69c59d3a195,62e2967fabf812d171fafb8a,,,,,,,,
