mouse.x,mouse.y,mouse.leftButton,mouse.midButton,mouse.rightButton,onsetTime,leftText,rightText,sliderDirection,face,lesion,block,slider.response,slider.rt,mouse_5.x,mouse_5.y,mouse_5.leftButton,mouse_5.midButton,mouse_5.rightButton,mouse_5.clicked_name,ITI,originalFaceTrials.thisRepN,originalFaceTrials.thisTrialN,originalFaceTrials.thisN,originalFaceTrials.thisIndex,originalFaceTrials.ran,Name,Gender,Age,Ethnicity,date,expName,psychopyVersion,OS,frameRate,RatingBlockOrder.thisRepN,RatingBlockOrder.thisTrialN,RatingBlockOrder.thisN,RatingBlockOrder.thisIndex,RatingBlockOrder.ran,Task,LeftLabel,RightLabel
0.01171875,-0.096354167,1,0,0,3.2264,Extremely Unattractive,Extremely  Attractive,mirrored,CFD_WM_212_097_N.png,RCHEEK,0,44.40104167,6.0662,0.005208333,-0.395833333,1,0,0,NextBu,0.62701353,0,0,0,0,1,5cfa555a926c930016b925d1,male,39,white,2022-07-28_18h23.45.732,FaceAttractiveness,2022.2.2,Win32,59.79073244,,,,,,,,
,,,,,11.1017,Extremely Unattractive,Extremely  Attractive,mirrored,CFD_WF_250_167_N.png,FOREHEAD,0,44.66145833,1.6311,-0.006510417,-0.390625,1,0,0,NextBu,0.590607378,1,0,1,0,1,5cfa555a926c930016b925d1,male,39,white,2022-07-28_18h23.45.732,FaceAttractiveness,2022.2.2,Win32,59.79073244,,,,,,,,
,,,,,13.8379,Extremely Unattractive,Extremely  Attractive,mirrored,CFD_WF_200_099_N.png,FOREHEAD,0,44.27083333,1.9893,-0.005208333,-0.39453125,1,0,0,NextBu,0.723571128,2,0,2,0,1,5cfa555a926c930016b925d1,male,39,white,2022-07-28_18h23.45.732,FaceAttractiveness,2022.2.2,Win32,59.79073244,,,,,,,,
,,,,,17.2205,Extremely Unattractive,Extremely  Attractive,mirrored,CFD_WF_002_004_N.png,NASALTIP,0,32.421875,5.098,0.010416667,-0.401041667,1,0,0,NextBu,0.682262302,3,0,3,0,1,5cfa555a926c930016b925d1,male,39,white,2022-07-28_18h23.45.732,FaceAttractiveness,2022.2.2,Win32,59.79073244,,,,,,,,
,,,,,23.5468,Extremely Unattractive,Extremely  Attractive,mirrored,CFD_LM_203_026_N.png,NASALTIP,0,30.20833333,2.3976,0.009114583,-0.415364583,1,0,0,NextBu,0.562410783,4,0,4,0,1,5cfa555a926c930016b925d1,male,39,white,2022-07-28_18h23.45.732,FaceAttractiveness,2022.2.2,Win32,59.79073244,,,,,,,,
,,,,,27.0101,Extremely Unattractive,Extremely  Attractive,mirrored,CFD_LM_201_057_N.png,FOREHEAD,0,50.26041667,5.3175,0.0234375,-0.397135417,1,0,0,NextBu,0.754352316,5,0,5,0,1,5cfa555a926c930016b925d1,male,39,white,2022-07-28_18h23.45.732,FaceAttractiveness,2022.2.2,Win32,59.79073244,,,,,,,,
,,,,,33.602,Extremely Unattractive,Extremely  Attractive,mirrored,CFD_LF_224_176_N.png,FOREHEAD,0,55.46875,2.288,-0.010416667,-0.404947917,1,0,0,NextBu,0.575644358,6,0,6,0,1,5cfa555a926c930016b925d1,male,39,white,2022-07-28_18h23.45.732,FaceAttractiveness,2022.2.2,Win32,59.79073244,,,,,,,,
,,,,,37.0477,Extremely Unattractive,Extremely  Attractive,mirrored,CFD_BM_234_172_N.png,LCHEEK,0,48.046875,1.7521,-0.005208333,-0.388020833,1,0,0,NextBu,0.99893578,7,0,7,0,1,5cfa555a926c930016b925d1,male,39,white,2022-07-28_18h23.45.732,FaceAttractiveness,2022.2.2,Win32,59.79073244,,,,,,,,
,,,,,40.5183,Extremely Unattractive,Extremely  Attractive,mirrored,CFD_BM_213_134_N.png,RCHEEK,0,47.13541667,1.6585,-0.01171875,-0.407552083,1,0,0,NextBu,0.708060843,8,0,8,0,1,5cfa555a926c930016b925d1,male,39,white,2022-07-28_18h23.45.732,FaceAttractiveness,2022.2.2,Win32,59.79073244,,,,,,,,
,,,,,43.3499,Extremely Unattractive,Extremely  Attractive,mirrored,CFD_BF_224_002_N.png,FOREHEAD,0,48.17708333,4.068,-0.018229167,-0.385416667,1,0,0,NextBu,0.67394315,9,0,9,0,1,5cfa555a926c930016b925d1,male,39,white,2022-07-28_18h23.45.732,FaceAttractiveness,2022.2.2,Win32,59.79073244,,,,,,,,
,,,,,48.5729,Extremely Unattractive,Extremely  Attractive,mirrored,CFD_BF_214_308_N.png,FOREHEAD,0,51.171875,2.6255,-0.00390625,-0.381510417,1,0,0,NextBu,0.649122208,10,0,10,0,1,5cfa555a926c930016b925d1,male,39,white,2022-07-28_18h23.45.732,FaceAttractiveness,2022.2.2,Win32,59.79073244,,,,,,,,
,,,,,52.6119,Extremely Unattractive,Extremely  Attractive,mirrored,CFD_AM_233_236_N.png,LCHEEK,0,41.92708333,1.946,-0.014322917,-0.41796875,1,0,0,NextBu,0.708841592,11,0,11,0,1,5cfa555a926c930016b925d1,male,39,white,2022-07-28_18h23.45.732,FaceAttractiveness,2022.2.2,Win32,59.79073244,,,,,,,,
,,,,,55.7983,Extremely Unattractive,Extremely  Attractive,mirrored,CFD_AF_245_143_N.png,NASALTIP,0,41.14583333,1.6969,-0.044270833,-0.3828125,1,0,0,NextBu,0.724784513,12,0,12,0,1,5cfa555a926c930016b925d1,male,39,white,2022-07-28_18h23.45.732,FaceAttractiveness,2022.2.2,Win32,59.79073244,,,,,,,,
,,,,,58.6898,Extremely Unattractive,Extremely  Attractive,mirrored,CFD_AF_237_223_N.png,LCHEEK,0,47.91666667,1.7667,0.009114583,-0.3515625,1,0,0,NextBu,0.892599035,13,0,13,0,1,5cfa555a926c930016b925d1,male,39,white,2022-07-28_18h23.45.732,FaceAttractiveness,2022.2.2,Win32,59.79073244,,,,,,,,
,,,,,61.703,Extremely Unattractive,Extremely  Attractive,mirrored,CFD_AF_231_357_N.png,LIP,0,38.15104167,3.4531,-0.010416667,-0.430989583,1,0,0,NextBu,0.674131983,14,0,14,0,1,5cfa555a926c930016b925d1,male,39,white,2022-07-28_18h23.45.732,FaceAttractiveness,2022.2.2,Win32,59.79073244,,,,,,,,
,,,,,66.4216,Extremely Unattractive,Extremely  Attractive,mirrored,136_M_M_N_A.png,RCHEEK,0,44.01041667,4.8114,0.006510417,-0.436197917,1,0,0,NextBu,0.758158152,15,0,15,0,1,5cfa555a926c930016b925d1,male,39,white,2022-07-28_18h23.45.732,FaceAttractiveness,2022.2.2,Win32,59.79073244,,,,,,,,
,,,,,72.238,Extremely Unattractive,Extremely  Attractive,mirrored,087_M_M_N_A.png,NASALTIP,0,34.24479167,3.9083,0.005208333,-0.416666667,1,0,0,NextBu,0.511462441,16,0,16,0,1,5cfa555a926c930016b925d1,male,39,white,2022-07-28_18h23.45.732,FaceAttractiveness,2022.2.2,Win32,59.79073244,,,,,,,,
,,,,,77.3676,Extremely Unattractive,Extremely  Attractive,mirrored,035_M_F_N_A.png,NASALTIP,0,30.98958333,3.7763,-0.00390625,-0.403645833,1,0,0,NextBu,0.620048567,17,0,17,0,1,5cfa555a926c930016b925d1,male,39,white,2022-07-28_18h23.45.732,FaceAttractiveness,2022.2.2,Win32,59.79073244,,,,,,,,
,,,,,82.2891,Extremely Unattractive,Extremely  Attractive,mirrored,006_M_F_N_A.png,NASALTIP,0,35.28645833,1.6352,-0.016927083,-0.415364583,1,0,0,NextBu,0.748718338,18,0,18,0,1,5cfa555a926c930016b925d1,male,39,white,2022-07-28_18h23.45.732,FaceAttractiveness,2022.2.2,Win32,59.79073244,,,,,,,,
,,,,,85.1565,Extremely Unattractive,Extremely  Attractive,mirrored,CFD_WM_212_097_N.png,LCHEEK,1,39.84375,3.3914,0.018229167,-0.39453125,1,0,0,NextBu,0.879429251,19,0,19,0,1,5cfa555a926c930016b925d1,male,39,white,2022-07-28_18h23.45.732,FaceAttractiveness,2022.2.2,Win32,59.79073244,,,,,,,,
,,,,,89.9727,Extremely Unattractive,Extremely  Attractive,mirrored,CFD_WF_250_167_N.png,RCHEEK,1,35.9375,1.8847,0.016927083,-0.423177083,1,0,0,NextBu,0.619337887,20,0,20,0,1,5cfa555a926c930016b925d1,male,39,white,2022-07-28_18h23.45.732,FaceAttractiveness,2022.2.2,Win32,59.79073244,,,,,,,,
,,,,,93.1085,Extremely Unattractive,Extremely  Attractive,mirrored,CFD_WF_200_099_N.png,NASALTIP,1,35.546875,1.8032,0,-0.3828125,1,0,0,NextBu,0.675734499,21,0,21,0,1,5cfa555a926c930016b925d1,male,39,white,2022-07-28_18h23.45.732,FaceAttractiveness,2022.2.2,Win32,59.79073244,,,,,,,,
,,,,,95.9672,Extremely Unattractive,Extremely  Attractive,mirrored,CFD_WF_002_004_N.png,RCHEEK,1,37.63020833,1.5087,0.014322917,-0.35546875,1,0,0,NextBu,0.780675764,22,0,22,0,1,5cfa555a926c930016b925d1,male,39,white,2022-07-28_18h23.45.732,FaceAttractiveness,2022.2.2,Win32,59.79073244,,,,,,,,
,,,,,98.7459,Extremely Unattractive,Extremely  Attractive,mirrored,CFD_LM_203_026_N.png,RCHEEK,1,37.109375,2.6021,0.01953125,-0.397135417,1,0,0,NextBu,0.99563993,23,0,23,0,1,5cfa555a926c930016b925d1,male,39,white,2022-07-28_18h23.45.732,FaceAttractiveness,2022.2.2,Win32,59.79073244,,,,,,,,
,,,,,102.8282,Extremely Unattractive,Extremely  Attractive,mirrored,CFD_LM_201_057_N.png,NASALTIP,1,40.10416667,2.4907,-0.028645833,-0.3984375,1,0,0,NextBu,0.858182476,24,0,24,0,1,5cfa555a926c930016b925d1,male,39,white,2022-07-28_18h23.45.732,FaceAttractiveness,2022.2.2,Win32,59.79073244,,,,,,,,
,,,,,106.7684,Extremely Unattractive,Extremely  Attractive,mirrored,CFD_LF_224_176_N.png,NASALTIP,1,41.27604167,2.4499,0.006510417,-0.385416667,1,0,0,NextBu,0.526525097,25,0,25,0,1,5cfa555a926c930016b925d1,male,39,white,2022-07-28_18h23.45.732,FaceAttractiveness,2022.2.2,Win32,59.79073244,,,,,,,,
,,,,,110.0893,Extremely Unattractive,Extremely  Attractive,mirrored,CFD_BM_234_172_N.png,FOREHEAD,1,42.96875,7.4135,0.033854167,-0.412760417,1,0,0,NextBu,0.839639729,26,0,26,0,1,5cfa555a926c930016b925d1,male,39,white,2022-07-28_18h23.45.732,FaceAttractiveness,2022.2.2,Win32,59.79073244,,,,,,,,
,,,,,118.803,Extremely Unattractive,Extremely  Attractive,mirrored,CFD_BM_213_134_N.png,NASALTIP,1,46.09375,2.9572,-0.0078125,-0.3671875,1,0,0,NextBu,0.800770594,27,0,27,0,1,5cfa555a926c930016b925d1,male,39,white,2022-07-28_18h23.45.732,FaceAttractiveness,2022.2.2,Win32,59.79073244,,,,,,,,
,,,,,122.9077,Extremely Unattractive,Extremely  Attractive,mirrored,CFD_BF_224_002_N.png,NASALTIP,1,47.39583333,1.9649,-0.009114583,-0.356770833,1,0,0,NextBu,0.605098069,28,0,28,0,1,5cfa555a926c930016b925d1,male,39,white,2022-07-28_18h23.45.732,FaceAttractiveness,2022.2.2,Win32,59.79073244,,,,,,,,
,,,,,125.8781,Extremely Unattractive,Extremely  Attractive,mirrored,CFD_BF_214_308_N.png,NASALTIP,1,46.35416667,4.2986,-0.01171875,-0.3984375,1,0,0,NextBu,0.887737299,29,0,29,0,1,5cfa555a926c930016b925d1,male,39,white,2022-07-28_18h23.45.732,FaceAttractiveness,2022.2.2,Win32,59.79073244,,,,,,,,
,,,,,132.2393,Extremely Unattractive,Extremely  Attractive,mirrored,CFD_AM_233_236_N.png,RCHEEK,1,39.0625,3.6797,0.009114583,-0.39453125,1,0,0,NextBu,0.735431584,30,0,30,0,1,5cfa555a926c930016b925d1,male,39,white,2022-07-28_18h23.45.732,FaceAttractiveness,2022.2.2,Win32,59.79073244,,,,,,,,
,,,,,137.2115,Extremely Unattractive,Extremely  Attractive,mirrored,CFD_AF_245_143_N.png,LCHEEK,1,39.58333333,2.8226,0.037760417,-0.41015625,1,0,0,NextBu,0.537819485,31,0,31,0,1,5cfa555a926c930016b925d1,male,39,white,2022-07-28_18h23.45.732,FaceAttractiveness,2022.2.2,Win32,59.79073244,,,,,,,,
,,,,,140.9576,Extremely Unattractive,Extremely  Attractive,mirrored,CFD_AF_237_223_N.png,FOREHEAD,1,41.40625,2.3445,0.006510417,-0.401041667,1,0,0,NextBu,0.591040091,32,0,32,0,1,5cfa555a926c930016b925d1,male,39,white,2022-07-28_18h23.45.732,FaceAttractiveness,2022.2.2,Win32,59.79073244,,,,,,,,
,,,,,144.5058,Extremely Unattractive,Extremely  Attractive,mirrored,CFD_AF_231_357_N.png,LCHEEK,1,36.71875,3.2582,-0.028645833,-0.35546875,1,0,0,NextBu,0.724526901,33,0,33,0,1,5cfa555a926c930016b925d1,male,39,white,2022-07-28_18h23.45.732,FaceAttractiveness,2022.2.2,Win32,59.79073244,,,,,,,,
,,,,,148.7719,Extremely Unattractive,Extremely  Attractive,mirrored,136_M_M_N_A.png,FOREHEAD,1,33.984375,2.4581,0.072916667,-0.420572917,1,0,0,NextBu,0.797389017,34,0,34,0,1,5cfa555a926c930016b925d1,male,39,white,2022-07-28_18h23.45.732,FaceAttractiveness,2022.2.2,Win32,59.79073244,,,,,,,,
,,,,,152.4976,Extremely Unattractive,Extremely  Attractive,mirrored,087_M_M_N_A.png,LIP,1,37.109375,2.9174,-0.018229167,-0.35546875,1,0,0,NextBu,0.647349097,35,0,35,0,1,5cfa555a926c930016b925d1,male,39,white,2022-07-28_18h23.45.732,FaceAttractiveness,2022.2.2,Win32,59.79073244,,,,,,,,
,,,,,156.7548,Extremely Unattractive,Extremely  Attractive,mirrored,035_M_F_N_A.png,LIP,1,36.97916667,1.9647,0.009114583,-0.40234375,1,0,0,NextBu,0.655941761,36,0,36,0,1,5cfa555a926c930016b925d1,male,39,white,2022-07-28_18h23.45.732,FaceAttractiveness,2022.2.2,Win32,59.79073244,,,,,,,,
,,,,,159.8808,Extremely Unattractive,Extremely  Attractive,mirrored,006_M_F_N_A.png,LIP,1,35.02604167,2.2317,-0.014322917,-0.372395833,1,0,0,NextBu,0.734699397,37,0,37,0,1,5cfa555a926c930016b925d1,male,39,white,2022-07-28_18h23.45.732,FaceAttractiveness,2022.2.2,Win32,59.79073244,,,,,,,,
,,,,,163.1813,Extremely Unattractive,Extremely  Attractive,mirrored,CFD_WM_212_097_N.png,FOREHEAD,2,39.19270833,2.9835,-0.024739583,-0.3671875,1,0,0,NextBu,0.621114197,38,0,38,0,1,5cfa555a926c930016b925d1,male,39,white,2022-07-28_18h23.45.732,FaceAttractiveness,2022.2.2,Win32,59.79073244,,,,,,,,
,,,,,167.1983,Extremely Unattractive,Extremely  Attractive,mirrored,CFD_WF_250_167_N.png,NASALTIP,2,40.36458333,1.1398,-0.006510417,-0.368489583,1,0,0,NextBu,0.523204822,39,0,39,0,1,5cfa555a926c930016b925d1,male,39,white,2022-07-28_18h23.45.732,FaceAttractiveness,2022.2.2,Win32,59.79073244,,,,,,,,
,,,,,169.3804,Extremely Unattractive,Extremely  Attractive,mirrored,CFD_WF_200_099_N.png,LCHEEK,2,42.83854167,2.169,0.03515625,-0.3984375,1,0,0,NextBu,0.899814485,40,0,40,0,1,5cfa555a926c930016b925d1,male,39,white,2022-07-28_18h23.45.732,FaceAttractiveness,2022.2.2,Win32,59.79073244,,,,,,,,
,,,,,173.0074,Extremely Unattractive,Extremely  Attractive,mirrored,CFD_WF_002_004_N.png,LCHEEK,2,37.76041667,1.267,0.071614583,-0.43359375,1,0,0,NextBu,0.707309167,41,0,41,0,1,5cfa555a926c930016b925d1,male,39,white,2022-07-28_18h23.45.732,FaceAttractiveness,2022.2.2,Win32,59.79073244,,,,,,,,
,,,,,175.4896,Extremely Unattractive,Extremely  Attractive,mirrored,CFD_LM_203_026_N.png,FOREHEAD,2,42.70833333,1.5594,0.044270833,-0.3984375,1,0,0,NextBu,0.881473923,42,0,42,0,1,5cfa555a926c930016b925d1,male,39,white,2022-07-28_18h23.45.732,FaceAttractiveness,2022.2.2,Win32,59.79073244,,,,,,,,
,,,,,178.3091,Extremely Unattractive,Extremely  Attractive,mirrored,CFD_LM_201_057_N.png,LIP,2,40.75520833,1.5432,0.005208333,-0.375,1,0,0,NextBu,0.921967473,43,0,43,0,1,5cfa555a926c930016b925d1,male,39,white,2022-07-28_18h23.45.732,FaceAttractiveness,2022.2.2,Win32,59.79073244,,,,,,,,
,,,,,181.1548,Extremely Unattractive,Extremely  Attractive,mirrored,CFD_LF_224_176_N.png,LIP,2,36.58854167,2.54,-0.041666667,-0.385416667,1,0,0,NextBu,0.715481368,44,0,44,0,1,5cfa555a926c930016b925d1,male,39,white,2022-07-28_18h23.45.732,FaceAttractiveness,2022.2.2,Win32,59.79073244,,,,,,,,
,,,,,185.1507,Extremely Unattractive,Extremely  Attractive,mirrored,CFD_BM_234_172_N.png,LIP,2,38.93229167,2.8777,-0.009114583,-0.391927083,1,0,0,NextBu,0.886101154,45,0,45,0,1,5cfa555a926c930016b925d1,male,39,white,2022-07-28_18h23.45.732,FaceAttractiveness,2022.2.2,Win32,59.79073244,,,,,,,,
,,,,,189.9582,Extremely Unattractive,Extremely  Attractive,mirrored,CFD_BM_213_134_N.png,LIP,2,39.0625,2.8715,0.005208333,-0.380208333,1,0,0,NextBu,0.802505862,46,0,46,0,1,5cfa555a926c930016b925d1,male,39,white,2022-07-28_18h23.45.732,FaceAttractiveness,2022.2.2,Win32,59.79073244,,,,,,,,
,,,,,194.0815,Extremely Unattractive,Extremely  Attractive,mirrored,CFD_BF_224_002_N.png,LCHEEK,2,38.28125,2.9361,-0.041666667,-0.354166667,1,0,0,NextBu,0.797231303,47,0,47,0,1,5cfa555a926c930016b925d1,male,39,white,2022-07-28_18h23.45.732,FaceAttractiveness,2022.2.2,Win32,59.79073244,,,,,,,,
,,,,,198.1377,Extremely Unattractive,Extremely  Attractive,mirrored,CFD_BF_214_308_N.png,RCHEEK,2,49.34895833,3.7853,0.046875,-0.412760417,1,0,0,NextBu,0.711443688,48,0,48,0,1,5cfa555a926c930016b925d1,male,39,white,2022-07-28_18h23.45.732,FaceAttractiveness,2022.2.2,Win32,59.79073244,,,,,,,,
,,,,,203.4804,Extremely Unattractive,Extremely  Attractive,mirrored,CFD_AM_233_236_N.png,NASALTIP,2,41.14583333,1.8214,0.083333333,-0.428385417,1,0,0,NextBu,0.710727669,49,0,49,0,1,5cfa555a926c930016b925d1,male,39,white,2022-07-28_18h23.45.732,FaceAttractiveness,2022.2.2,Win32,59.79073244,,,,,,,,
,,,,,206.4102,Extremely Unattractive,Extremely  Attractive,mirrored,CFD_AF_245_143_N.png,LIP,2,36.19791667,2.3411,0.037760417,-0.389322917,1,0,0,NextBu,0.76043442,50,0,50,0,1,5cfa555a926c930016b925d1,male,39,white,2022-07-28_18h23.45.732,FaceAttractiveness,2022.2.2,Win32,59.79073244,,,,,,,,
,,,,,209.9094,Extremely Unattractive,Extremely  Attractive,mirrored,CFD_AF_237_223_N.png,RCHEEK,2,45.05208333,2.4551,0.0546875,-0.401041667,1,0,0,NextBu,0.576022374,51,0,51,0,1,5cfa555a926c930016b925d1,male,39,white,2022-07-28_18h23.45.732,FaceAttractiveness,2022.2.2,Win32,59.79073244,,,,,,,,
,,,,,213.2093,Extremely Unattractive,Extremely  Attractive,mirrored,CFD_AF_231_357_N.png,NASALTIP,2,38.80208333,1.3398,-0.010416667,-0.37890625,1,0,0,NextBu,0.727215892,52,0,52,0,1,5cfa555a926c930016b925d1,male,39,white,2022-07-28_18h23.45.732,FaceAttractiveness,2022.2.2,Win32,59.79073244,,,,,,,,
,,,,,215.8558,Extremely Unattractive,Extremely  Attractive,mirrored,136_M_M_N_A.png,LCHEEK,2,36.328125,1.3376,0.053385417,-0.401041667,1,0,0,NextBu,0.736810358,53,0,53,0,1,5cfa555a926c930016b925d1,male,39,white,2022-07-28_18h23.45.732,FaceAttractiveness,2022.2.2,Win32,59.79073244,,,,,,,,
,,,,,218.2852,Extremely Unattractive,Extremely  Attractive,mirrored,087_M_M_N_A.png,LCHEEK,2,44.66145833,2.7156,0.0078125,-0.377604167,1,0,0,NextBu,0.861501259,54,0,54,0,1,5cfa555a926c930016b925d1,male,39,white,2022-07-28_18h23.45.732,FaceAttractiveness,2022.2.2,Win32,59.79073244,,,,,,,,
,,,,,222.2413,Extremely Unattractive,Extremely  Attractive,mirrored,035_M_F_N_A.png,LCHEEK,2,38.80208333,1.6954,0.033854167,-0.384114583,1,0,0,NextBu,0.646813544,55,0,55,0,1,5cfa555a926c930016b925d1,male,39,white,2022-07-28_18h23.45.732,FaceAttractiveness,2022.2.2,Win32,59.79073244,,,,,,,,
,,,,,225.7678,Extremely Unattractive,Extremely  Attractive,mirrored,006_M_F_N_A.png,LCHEEK,2,38.80208333,1.4389,0.0078125,-0.373697917,1,0,0,NextBu,0.802165592,56,0,56,0,1,5cfa555a926c930016b925d1,male,39,white,2022-07-28_18h23.45.732,FaceAttractiveness,2022.2.2,Win32,59.79073244,,,,,,,,
,,,,,228.3224,Extremely Unattractive,Extremely  Attractive,mirrored,CFD_WM_212_097_N.png,NASALTIP,3,40.625,1.4522,0.03125,-0.41015625,1,0,0,NextBu,0.892658359,57,0,57,0,1,5cfa555a926c930016b925d1,male,39,white,2022-07-28_18h23.45.732,FaceAttractiveness,2022.2.2,Win32,59.79073244,,,,,,,,
,,,,,231.1605,Extremely Unattractive,Extremely  Attractive,mirrored,CFD_WF_250_167_N.png,LCHEEK,3,39.71354167,1.7279,0.071614583,-0.41015625,1,0,0,NextBu,0.740035305,58,0,58,0,1,5cfa555a926c930016b925d1,male,39,white,2022-07-28_18h23.45.732,FaceAttractiveness,2022.2.2,Win32,59.79073244,,,,,,,,
,,,,,233.9964,Extremely Unattractive,Extremely  Attractive,mirrored,CFD_WF_200_099_N.png,RCHEEK,3,42.31770833,2.5607,-0.028645833,-0.354166667,1,0,0,NextBu,0.758002473,59,0,59,0,1,5cfa555a926c930016b925d1,male,39,white,2022-07-28_18h23.45.732,FaceAttractiveness,2022.2.2,Win32,59.79073244,,,,,,,,
,,,,,237.969,Extremely Unattractive,Extremely  Attractive,mirrored,CFD_WF_002_004_N.png,FOREHEAD,3,40.49479167,1.119,0.00390625,-0.401041667,1,0,0,NextBu,0.57984214,60,0,60,0,1,5cfa555a926c930016b925d1,male,39,white,2022-07-28_18h23.45.732,FaceAttractiveness,2022.2.2,Win32,59.79073244,,,,,,,,
,,,,,239.9834,Extremely Unattractive,Extremely  Attractive,mirrored,CFD_LM_203_026_N.png,LIP,3,33.07291667,3.8618,-0.03125,-0.3671875,1,0,0,NextBu,0.684788641,61,0,61,0,1,5cfa555a926c930016b925d1,male,39,white,2022-07-28_18h23.45.732,FaceAttractiveness,2022.2.2,Win32,59.79073244,,,,,,,,
,,,,,245.0679,Extremely Unattractive,Extremely  Attractive,mirrored,CFD_LM_201_057_N.png,RCHEEK,3,40.10416667,1.2061,0.028645833,-0.385416667,1,0,0,NextBu,0.700499539,62,0,62,0,1,5cfa555a926c930016b925d1,male,39,white,2022-07-28_18h23.45.732,FaceAttractiveness,2022.2.2,Win32,59.79073244,,,,,,,,
,,,,,247.2579,Extremely Unattractive,Extremely  Attractive,mirrored,CFD_LF_224_176_N.png,LCHEEK,3,48.046875,2.5011,0.037760417,-0.444010417,1,0,0,NextBu,0.747173505,63,0,63,0,1,5cfa555a926c930016b925d1,male,39,white,2022-07-28_18h23.45.732,FaceAttractiveness,2022.2.2,Win32,59.79073244,,,,,,,,
,,,,,251.0965,Extremely Unattractive,Extremely  Attractive,mirrored,CFD_BM_234_172_N.png,NASALTIP,3,46.22395833,1.8744,0.022135417,-0.37890625,1,0,0,NextBu,0.961250422,64,0,64,0,1,5cfa555a926c930016b925d1,male,39,white,2022-07-28_18h23.45.732,FaceAttractiveness,2022.2.2,Win32,59.79073244,,,,,,,,
,,,,,254.473,Extremely Unattractive,Extremely  Attractive,mirrored,CFD_BM_213_134_N.png,FOREHEAD,3,48.17708333,2.8909,0.04296875,-0.399739583,1,0,0,NextBu,0.585797353,65,0,65,0,1,5cfa555a926c930016b925d1,male,39,white,2022-07-28_18h23.45.732,FaceAttractiveness,2022.2.2,Win32,59.79073244,,,,,,,,
,,,,,258.2938,Extremely Unattractive,Extremely  Attractive,mirrored,CFD_BF_224_002_N.png,RCHEEK,3,45.703125,1.9452,0.044270833,-0.423177083,1,0,0,NextBu,0.594720302,66,0,66,0,1,5cfa555a926c930016b925d1,male,39,white,2022-07-28_18h23.45.732,FaceAttractiveness,2022.2.2,Win32,59.79073244,,,,,,,,
,,,,,261.1228,Extremely Unattractive,Extremely  Attractive,mirrored,CFD_BF_214_308_N.png,LIP,3,46.22395833,2.3335,0.026041667,-0.364583333,1,0,0,NextBu,0.780294036,67,0,67,0,1,5cfa555a926c930016b925d1,male,39,white,2022-07-28_18h23.45.732,FaceAttractiveness,2022.2.2,Win32,59.79073244,,,,,,,,
,,,,,264.5861,Extremely Unattractive,Extremely  Attractive,mirrored,CFD_AM_233_236_N.png,FOREHEAD,3,41.40625,1.1624,0.018229167,-0.408854167,1,0,0,NextBu,0.617847891,68,0,68,0,1,5cfa555a926c930016b925d1,male,39,white,2022-07-28_18h23.45.732,FaceAttractiveness,2022.2.2,Win32,59.79073244,,,,,,,,
,,,,,267.0782,Extremely Unattractive,Extremely  Attractive,mirrored,CFD_AF_245_143_N.png,RCHEEK,3,43.09895833,1.1858,0.052083333,-0.432291667,1,0,0,NextBu,0.926664198,69,0,69,0,1,5cfa555a926c930016b925d1,male,39,white,2022-07-28_18h23.45.732,FaceAttractiveness,2022.2.2,Win32,59.79073244,,,,,,,,
,,,,,269.552,Extremely Unattractive,Extremely  Attractive,mirrored,CFD_AF_237_223_N.png,NASALTIP,3,43.22916667,1.5037,-0.006510417,-0.395833333,1,0,0,NextBu,0.855193038,70,0,70,0,1,5cfa555a926c930016b925d1,male,39,white,2022-07-28_18h23.45.732,FaceAttractiveness,2022.2.2,Win32,59.79073244,,,,,,,,
,,,,,272.8232,Extremely Unattractive,Extremely  Attractive,mirrored,CFD_AF_231_357_N.png,FOREHEAD,3,40.88541667,7.1958,0.005208333,-0.415364583,1,0,0,NextBu,0.737947827,71,0,71,0,1,5cfa555a926c930016b925d1,male,39,white,2022-07-28_18h23.45.732,FaceAttractiveness,2022.2.2,Win32,59.79073244,,,,,,,,
,,,,,281.1053,Extremely Unattractive,Extremely  Attractive,mirrored,136_M_M_N_A.png,LIP,3,40.75520833,1.3166,0.046875,-0.390625,1,0,0,NextBu,0.963934787,72,0,72,0,1,5cfa555a926c930016b925d1,male,39,white,2022-07-28_18h23.45.732,FaceAttractiveness,2022.2.2,Win32,59.79073244,,,,,,,,
,,,,,283.6604,Extremely Unattractive,Extremely  Attractive,mirrored,087_M_M_N_A.png,FOREHEAD,3,46.74479167,1.2566,-0.001302083,-0.364583333,1,0,0,NextBu,0.770423181,73,0,73,0,1,5cfa555a926c930016b925d1,male,39,white,2022-07-28_18h23.45.732,FaceAttractiveness,2022.2.2,Win32,59.79073244,,,,,,,,
,,,,,285.9823,Extremely Unattractive,Extremely  Attractive,mirrored,035_M_F_N_A.png,RCHEEK,3,35.546875,1.0204,-0.013020833,-0.399739583,1,0,0,NextBu,0.512360894,74,0,74,0,1,5cfa555a926c930016b925d1,male,39,white,2022-07-28_18h23.45.732,FaceAttractiveness,2022.2.2,Win32,59.79073244,,,,,,,,
,,,,,287.9456,Extremely Unattractive,Extremely  Attractive,mirrored,006_M_F_N_A.png,FOREHEAD,3,43.88020833,2.0313,-0.00390625,-0.372395833,1,0,0,NextBu,0.559651528,75,0,75,0,1,5cfa555a926c930016b925d1,male,39,white,2022-07-28_18h23.45.732,FaceAttractiveness,2022.2.2,Win32,59.79073244,,,,,,,,
,,,,,290.9425,Extremely Unattractive,Extremely  Attractive,mirrored,CFD_WM_212_097_N.png,LIP,4,41.92708333,1.3412,0.016927083,-0.389322917,1,0,0,NextBu,0.509029157,76,0,76,0,1,5cfa555a926c930016b925d1,male,39,white,2022-07-28_18h23.45.732,FaceAttractiveness,2022.2.2,Win32,59.79073244,,,,,,,,
,,,,,293.0947,Extremely Unattractive,Extremely  Attractive,mirrored,CFD_WF_250_167_N.png,LIP,4,35.15625,2.0264,0.009114583,-0.408854167,1,0,0,NextBu,0.717637089,77,0,77,0,1,5cfa555a926c930016b925d1,male,39,white,2022-07-28_18h23.45.732,FaceAttractiveness,2022.2.2,Win32,59.79073244,,,,,,,,
,,,,,296.1505,Extremely Unattractive,Extremely  Attractive,mirrored,CFD_WF_200_099_N.png,LIP,4,35.546875,1.0237,0.013020833,-0.385416667,1,0,0,NextBu,0.741637651,78,0,78,0,1,5cfa555a926c930016b925d1,male,39,white,2022-07-28_18h23.45.732,FaceAttractiveness,2022.2.2,Win32,59.79073244,,,,,,,,
,,,,,298.2644,Extremely Unattractive,Extremely  Attractive,mirrored,CFD_WF_002_004_N.png,LIP,4,35.67708333,1.7876,-0.05078125,-0.37109375,1,0,0,NextBu,0.662097113,79,0,79,0,1,5cfa555a926c930016b925d1,male,39,white,2022-07-28_18h23.45.732,FaceAttractiveness,2022.2.2,Win32,59.79073244,,,,,,,,
,,,,,301.2926,Extremely Unattractive,Extremely  Attractive,mirrored,CFD_LM_203_026_N.png,LCHEEK,4,33.46354167,1.8449,-0.040364583,-0.361979167,1,0,0,NextBu,0.709665016,80,0,80,0,1,5cfa555a926c930016b925d1,male,39,white,2022-07-28_18h23.45.732,FaceAttractiveness,2022.2.2,Win32,59.79073244,,,,,,,,
,,,,,304.2827,Extremely Unattractive,Extremely  Attractive,mirrored,CFD_LM_201_057_N.png,LCHEEK,4,43.48958333,2.687,0.013020833,-0.376302083,1,0,0,NextBu,0.634472399,81,0,81,0,1,5cfa555a926c930016b925d1,male,39,white,2022-07-28_18h23.45.732,FaceAttractiveness,2022.2.2,Win32,59.79073244,,,,,,,,
,,,,,307.9427,Extremely Unattractive,Extremely  Attractive,mirrored,CFD_LF_224_176_N.png,RCHEEK,4,48.4375,2.1341,0.045572917,-0.36328125,1,0,0,NextBu,0.656289071,82,0,82,0,1,5cfa555a926c930016b925d1,male,39,white,2022-07-28_18h23.45.732,FaceAttractiveness,2022.2.2,Win32,59.79073244,,,,,,,,
,,,,,311.1179,Extremely Unattractive,Extremely  Attractive,mirrored,CFD_BM_234_172_N.png,RCHEEK,4,46.22395833,1.3715,0.0703125,-0.446614583,1,0,0,NextBu,0.765444075,83,0,83,0,1,5cfa555a926c930016b925d1,male,39,white,2022-07-28_18h23.45.732,FaceAttractiveness,2022.2.2,Win32,59.79073244,,,,,,,,
,,,,,313.6891,Extremely Unattractive,Extremely  Attractive,mirrored,CFD_BM_213_134_N.png,LCHEEK,4,46.22395833,1.0006,0.014322917,-0.368489583,1,0,0,NextBu,0.763430257,84,0,84,0,1,5cfa555a926c930016b925d1,male,39,white,2022-07-28_18h23.45.732,FaceAttractiveness,2022.2.2,Win32,59.79073244,,,,,,,,
,,,,,315.8697,Extremely Unattractive,Extremely  Attractive,mirrored,CFD_BF_224_002_N.png,LIP,4,45.3125,1.8407,0.046875,-0.424479167,1,0,0,NextBu,0.549947566,85,0,85,0,1,5cfa555a926c930016b925d1,male,39,white,2022-07-28_18h23.45.732,FaceAttractiveness,2022.2.2,Win32,59.79073244,,,,,,,,
,,,,,318.6309,Extremely Unattractive,Extremely  Attractive,mirrored,CFD_BF_214_308_N.png,LCHEEK,4,50.91145833,2.2425,0.026041667,-0.354166667,1,0,0,NextBu,0.983266437,86,0,86,0,1,5cfa555a926c930016b925d1,male,39,white,2022-07-28_18h23.45.732,FaceAttractiveness,2022.2.2,Win32,59.79073244,,,,,,,,
,,,,,322.5737,Extremely Unattractive,Extremely  Attractive,mirrored,CFD_AM_233_236_N.png,LIP,4,40.75520833,2.5224,0.010416667,-0.388020833,1,0,0,NextBu,0.612796476,87,0,87,0,1,5cfa555a926c930016b925d1,male,39,white,2022-07-28_18h23.45.732,FaceAttractiveness,2022.2.2,Win32,59.79073244,,,,,,,,
,,,,,325.9773,Extremely Unattractive,Extremely  Attractive,mirrored,CFD_AF_245_143_N.png,FOREHEAD,4,47.39583333,1.698,0.0078125,-0.421875,1,0,0,NextBu,0.788391075,88,0,88,0,1,5cfa555a926c930016b925d1,male,39,white,2022-07-28_18h23.45.732,FaceAttractiveness,2022.2.2,Win32,59.79073244,,,,,,,,
,,,,,328.9124,Extremely Unattractive,Extremely  Attractive,mirrored,CFD_AF_237_223_N.png,LIP,4,38.80208333,1.8344,-0.026041667,-0.364583333,1,0,0,NextBu,0.697356868,89,0,89,0,1,5cfa555a926c930016b925d1,male,39,white,2022-07-28_18h23.45.732,FaceAttractiveness,2022.2.2,Win32,59.79073244,,,,,,,,
,,,,,332.1742,Extremely Unattractive,Extremely  Attractive,mirrored,CFD_AF_231_357_N.png,RCHEEK,4,34.11458333,1.2796,0.020833333,-0.399739583,1,0,0,NextBu,0.712882078,90,0,90,0,1,5cfa555a926c930016b925d1,male,39,white,2022-07-28_18h23.45.732,FaceAttractiveness,2022.2.2,Win32,59.79073244,,,,,,,,
,,,,,334.5018,Extremely Unattractive,Extremely  Attractive,mirrored,136_M_M_N_A.png,NASALTIP,4,41.40625,0.9199,0.009114583,-0.399739583,1,0,0,NextBu,0.576840531,91,0,91,0,1,5cfa555a926c930016b925d1,male,39,white,2022-07-28_18h23.45.732,FaceAttractiveness,2022.2.2,Win32,59.79073244,,,,,,,,
,,,,,336.5939,Extremely Unattractive,Extremely  Attractive,mirrored,087_M_M_N_A.png,RCHEEK,4,43.88020833,1.6365,-0.005208333,-0.36328125,1,0,0,NextBu,0.688092123,92,0,92,0,1,5cfa555a926c930016b925d1,male,39,white,2022-07-28_18h23.45.732,FaceAttractiveness,2022.2.2,Win32,59.79073244,,,,,,,,
,,,,,339.1717,Extremely Unattractive,Extremely  Attractive,mirrored,035_M_F_N_A.png,FOREHEAD,4,38.28125,1.262,0.00390625,-0.404947917,1,0,0,NextBu,0.884836406,93,0,93,0,1,5cfa555a926c930016b925d1,male,39,white,2022-07-28_18h23.45.732,FaceAttractiveness,2022.2.2,Win32,59.79073244,,,,,,,,
,,,,,341.8574,Extremely Unattractive,Extremely  Attractive,mirrored,006_M_F_N_A.png,RCHEEK,4,41.27604167,3.5276,-0.041666667,-0.350260417,1,0,0,NextBu,0.53943209,94,0,94,0,1,5cfa555a926c930016b925d1,male,39,white,2022-07-28_18h23.45.732,FaceAttractiveness,2022.2.2,Win32,59.79073244,,,,,,,,
,,,,,,,,,,,,,,,,,,,,,,,,,,5cfa555a926c930016b925d1,male,39,white,2022-07-28_18h23.45.732,FaceAttractiveness,2022.2.2,Win32,59.79073244,0,0,0,0,1,Attractiveness,Extremely  Attractive,Extremely Unattractive
,,,,,,,,,,,,,,,,,,,,,,,,,,5cfa555a926c930016b925d1,male,39,white,2022-07-28_18h23.45.732,FaceAttractiveness,2022.2.2,Win32,59.79073244,,,,,,,,
