mouse.x,mouse.y,mouse.leftButton,mouse.midButton,mouse.rightButton,onsetTime,leftText,rightText,sliderDirection,face,lesion,block,slider.response,slider.rt,mouse_5.x,mouse_5.y,mouse_5.leftButton,mouse_5.midButton,mouse_5.rightButton,mouse_5.clicked_name,ITI,originalFaceTrials.thisRepN,originalFaceTrials.thisTrialN,originalFaceTrials.thisN,originalFaceTrials.thisIndex,originalFaceTrials.ran,Name,Gender,Age,Ethnicity,date,expName,psychopyVersion,OS,frameRate,RatingBlockOrder.thisRepN,RatingBlockOrder.thisTrialN,RatingBlockOrder.thisN,RatingBlockOrder.thisIndex,RatingBlockOrder.ran,Task,LeftLabel,RightLabel
0.05987055,-0.200107875,1,0,0,5.0285,Extremely Unattractive,Extremely  Attractive,mirrored,CFD_WM_212_097_N.png,RCHEEK,0,24.59546926,4.5262,-0.040453074,-0.402912621,1,0,0,NextBu,0.911838265,0,0,0,0,1,5e81fd2e6f674202efe1ccb9,female,35,Italian,2022-07-29_14h38.44.978,FaceAttractiveness,2022.2.2,Win32,60.06366749,,,,,,,,
,,,,,11.3234,Extremely Unattractive,Extremely  Attractive,mirrored,CFD_WF_250_167_N.png,NASALTIP,0,5.445544554,4.4121,-0.012729844,-0.386845827,1,0,0,NextBu,0.575209805,1,0,1,0,1,5e81fd2e6f674202efe1ccb9,female,35,Italian,2022-07-29_14h38.44.978,FaceAttractiveness,2022.2.2,Win32,60.06366749,,,,,,,,
,,,,,17.5192,Extremely Unattractive,Extremely  Attractive,mirrored,CFD_WF_200_099_N.png,LCHEEK,0,33.73408769,3.2494,-0.002828854,-0.400990099,1,0,0,NextBu,0.805409533,2,0,2,0,1,5e81fd2e6f674202efe1ccb9,female,35,Italian,2022-07-29_14h38.44.978,FaceAttractiveness,2022.2.2,Win32,60.06366749,,,,,,,,
,,,,,22.0482,Extremely Unattractive,Extremely  Attractive,mirrored,CFD_WF_002_004_N.png,RCHEEK,0,13.64922207,1.681,0.04950495,-0.403818953,1,0,0,NextBu,0.78345049,3,0,3,0,1,5e81fd2e6f674202efe1ccb9,female,35,Italian,2022-07-29_14h38.44.978,FaceAttractiveness,2022.2.2,Win32,60.06366749,,,,,,,,
,,,,,24.9864,Extremely Unattractive,Extremely  Attractive,mirrored,CFD_LM_203_026_N.png,RCHEEK,0,11.52758133,1.7989,0.015558699,-0.381188119,1,0,0,NextBu,0.849802956,4,0,4,0,1,5e81fd2e6f674202efe1ccb9,female,35,Italian,2022-07-29_14h38.44.978,FaceAttractiveness,2022.2.2,Win32,60.06366749,,,,,,,,
,,,,,28.215,Extremely Unattractive,Extremely  Attractive,mirrored,CFD_LM_201_057_N.png,LCHEEK,0,35.572843,1.7535,-0.014144272,-0.396746818,1,0,0,NextBu,0.565484763,5,0,5,0,1,5e81fd2e6f674202efe1ccb9,female,35,Italian,2022-07-29_14h38.44.978,FaceAttractiveness,2022.2.2,Win32,60.06366749,,,,,,,,
,,,,,31.4819,Extremely Unattractive,Extremely  Attractive,mirrored,CFD_LF_224_176_N.png,RCHEEK,0,32.46110325,1.6529,0.042432815,-0.382602546,1,0,0,NextBu,0.971334779,6,0,6,0,1,5e81fd2e6f674202efe1ccb9,female,35,Italian,2022-07-29_14h38.44.978,FaceAttractiveness,2022.2.2,Win32,60.06366749,,,,,,,,
,,,,,34.6527,Extremely Unattractive,Extremely  Attractive,mirrored,CFD_BM_234_172_N.png,LIP,0,36.42149929,1.877,0.016973126,-0.376944837,1,0,0,NextBu,0.859930778,7,0,7,0,1,5e81fd2e6f674202efe1ccb9,female,35,Italian,2022-07-29_14h38.44.978,FaceAttractiveness,2022.2.2,Win32,60.06366749,,,,,,,,
,,,,,37.7691,Extremely Unattractive,Extremely  Attractive,mirrored,CFD_BM_213_134_N.png,LCHEEK,0,20.2970297,1.5995,-0.012729844,-0.376944837,1,0,0,NextBu,0.729659273,8,0,8,0,1,5e81fd2e6f674202efe1ccb9,female,35,Italian,2022-07-29_14h38.44.978,FaceAttractiveness,2022.2.2,Win32,60.06366749,,,,,,,,
,,,,,40.6818,Extremely Unattractive,Extremely  Attractive,mirrored,CFD_BF_224_002_N.png,LCHEEK,0,18.31683168,1.8484,0.016973126,-0.391089109,1,0,0,NextBu,0.874611881,9,0,9,0,1,5e81fd2e6f674202efe1ccb9,female,35,Italian,2022-07-29_14h38.44.978,FaceAttractiveness,2022.2.2,Win32,60.06366749,,,,,,,,
,,,,,44.4194,Extremely Unattractive,Extremely  Attractive,mirrored,CFD_BF_214_308_N.png,FOREHEAD,0,62.30551627,3.0327,0.038189533,-0.399575672,1,0,0,NextBu,0.940078984,10,0,10,0,1,5e81fd2e6f674202efe1ccb9,female,35,Italian,2022-07-29_14h38.44.978,FaceAttractiveness,2022.2.2,Win32,60.06366749,,,,,,,,
,,,,,49.2981,Extremely Unattractive,Extremely  Attractive,mirrored,CFD_AM_233_236_N.png,LCHEEK,0,15.91230552,2.64,0.011315417,-0.388260255,1,0,0,NextBu,0.622969769,11,0,11,0,1,5e81fd2e6f674202efe1ccb9,female,35,Italian,2022-07-29_14h38.44.978,FaceAttractiveness,2022.2.2,Win32,60.06366749,,,,,,,,
,,,,,53.0648,Extremely Unattractive,Extremely  Attractive,mirrored,CFD_AF_245_143_N.png,RCHEEK,0,51.27298444,1.937,0.007072136,-0.393917963,1,0,0,NextBu,0.514912775,12,0,12,0,1,5e81fd2e6f674202efe1ccb9,female,35,Italian,2022-07-29_14h38.44.978,FaceAttractiveness,2022.2.2,Win32,60.06366749,,,,,,,,
,,,,,56.0194,Extremely Unattractive,Extremely  Attractive,mirrored,CFD_AF_237_223_N.png,NASALTIP,0,52.82885431,3.0383,0.045261669,-0.391089109,1,0,0,NextBu,0.57008726,13,0,13,0,1,5e81fd2e6f674202efe1ccb9,female,35,Italian,2022-07-29_14h38.44.978,FaceAttractiveness,2022.2.2,Win32,60.06366749,,,,,,,,
,,,,,60.1647,Extremely Unattractive,Extremely  Attractive,mirrored,CFD_AF_231_357_N.png,LCHEEK,0,36.70438472,2.005,-0.035360679,-0.410891089,1,0,0,NextBu,0.696311251,14,0,14,0,1,5e81fd2e6f674202efe1ccb9,female,35,Italian,2022-07-29_14h38.44.978,FaceAttractiveness,2022.2.2,Win32,60.06366749,,,,,,,,
,,,,,63.5193,Extremely Unattractive,Extremely  Attractive,mirrored,136_M_M_N_A.png,FOREHEAD,0,21.85289958,1.6993,0.042432815,-0.3854314,1,0,0,NextBu,0.786507895,15,0,15,0,1,5e81fd2e6f674202efe1ccb9,female,35,Italian,2022-07-29_14h38.44.978,FaceAttractiveness,2022.2.2,Win32,60.06366749,,,,,,,,
,,,,,66.8815,Extremely Unattractive,Extremely  Attractive,mirrored,087_M_M_N_A.png,FOREHEAD,0,41.23055163,2.2868,0.024045262,-0.389674682,1,0,0,NextBu,0.626483185,16,0,16,0,1,5e81fd2e6f674202efe1ccb9,female,35,Italian,2022-07-29_14h38.44.978,FaceAttractiveness,2022.2.2,Win32,60.06366749,,,,,,,,
,,,,,70.2651,Extremely Unattractive,Extremely  Attractive,mirrored,035_M_F_N_A.png,RCHEEK,0,16.19519095,1.6531,-0.04950495,-0.406647808,1,0,0,NextBu,0.643311179,17,0,17,0,1,5e81fd2e6f674202efe1ccb9,female,35,Italian,2022-07-29_14h38.44.978,FaceAttractiveness,2022.2.2,Win32,60.06366749,,,,,,,,
,,,,,73.1153,Extremely Unattractive,Extremely  Attractive,mirrored,006_M_F_N_A.png,FOREHEAD,0,35.99717115,1.5531,0.012729844,-0.37553041,1,0,0,NextBu,0.914014748,18,0,18,0,1,5e81fd2e6f674202efe1ccb9,female,35,Italian,2022-07-29_14h38.44.978,FaceAttractiveness,2022.2.2,Win32,60.06366749,,,,,,,,
,,,,,76.0358,Extremely Unattractive,Extremely  Attractive,mirrored,CFD_WM_212_097_N.png,LCHEEK,1,34.58274399,1.8164,0.011315417,-0.379773692,1,0,0,NextBu,0.54268137,19,0,19,0,1,5e81fd2e6f674202efe1ccb9,female,35,Italian,2022-07-29_14h38.44.978,FaceAttractiveness,2022.2.2,Win32,60.06366749,,,,,,,,
,,,,,78.7814,Extremely Unattractive,Extremely  Attractive,mirrored,CFD_WF_250_167_N.png,LCHEEK,1,18.17538897,1.5488,0.016973126,-0.399575672,1,0,0,NextBu,0.744080229,20,0,20,0,1,5e81fd2e6f674202efe1ccb9,female,35,Italian,2022-07-29_14h38.44.978,FaceAttractiveness,2022.2.2,Win32,60.06366749,,,,,,,,
,,,,,82.0528,Extremely Unattractive,Extremely  Attractive,mirrored,CFD_WF_200_099_N.png,FOREHEAD,1,31.47100424,2.8661,-0.011315417,-0.379773692,1,0,0,NextBu,0.995980297,21,0,21,0,1,5e81fd2e6f674202efe1ccb9,female,35,Italian,2022-07-29_14h38.44.978,FaceAttractiveness,2022.2.2,Win32,60.06366749,,,,,,,,
,,,,,86.9014,Extremely Unattractive,Extremely  Attractive,mirrored,CFD_WF_002_004_N.png,LIP,1,15.20509194,1.599,0.001414427,-0.40523338,1,0,0,NextBu,0.799548214,22,0,22,0,1,5e81fd2e6f674202efe1ccb9,female,35,Italian,2022-07-29_14h38.44.978,FaceAttractiveness,2022.2.2,Win32,60.06366749,,,,,,,,
,,,,,89.8985,Extremely Unattractive,Extremely  Attractive,mirrored,CFD_LM_203_026_N.png,NASALTIP,1,18.74115983,1.4696,-0.005657709,-0.367043847,1,0,0,NextBu,0.69304383,23,0,23,0,1,5e81fd2e6f674202efe1ccb9,female,35,Italian,2022-07-29_14h38.44.978,FaceAttractiveness,2022.2.2,Win32,60.06366749,,,,,,,,
,,,,,92.5179,Extremely Unattractive,Extremely  Attractive,mirrored,CFD_LM_201_057_N.png,FOREHEAD,1,33.16831683,1.7346,0.024045262,-0.357142857,1,0,0,NextBu,0.757937103,24,0,24,0,1,5e81fd2e6f674202efe1ccb9,female,35,Italian,2022-07-29_14h38.44.978,FaceAttractiveness,2022.2.2,Win32,60.06366749,,,,,,,,
,,,,,95.3819,Extremely Unattractive,Extremely  Attractive,mirrored,CFD_LF_224_176_N.png,NASALTIP,1,32.8854314,1.4678,0.028288543,-0.402404526,1,0,0,NextBu,0.743723846,25,0,25,0,1,5e81fd2e6f674202efe1ccb9,female,35,Italian,2022-07-29_14h38.44.978,FaceAttractiveness,2022.2.2,Win32,60.06366749,,,,,,,,
,,,,,97.9825,Extremely Unattractive,Extremely  Attractive,mirrored,CFD_BM_234_172_N.png,LCHEEK,1,31.61244696,1.2202,0.021216407,-0.381188119,1,0,0,NextBu,0.527776776,26,0,26,0,1,5e81fd2e6f674202efe1ccb9,female,35,Italian,2022-07-29_14h38.44.978,FaceAttractiveness,2022.2.2,Win32,60.06366749,,,,,,,,
,,,,,100.1363,Extremely Unattractive,Extremely  Attractive,mirrored,CFD_BM_213_134_N.png,FOREHEAD,1,20.01414427,1.5828,-0.028288543,-0.374115983,1,0,0,NextBu,0.760177551,27,0,27,0,1,5e81fd2e6f674202efe1ccb9,female,35,Italian,2022-07-29_14h38.44.978,FaceAttractiveness,2022.2.2,Win32,60.06366749,,,,,,,,
,,,,,102.9314,Extremely Unattractive,Extremely  Attractive,mirrored,CFD_BF_224_002_N.png,FOREHEAD,1,21.71145686,2.4704,-0.025459689,-0.37553041,1,0,0,NextBu,0.617803676,28,0,28,0,1,5e81fd2e6f674202efe1ccb9,female,35,Italian,2022-07-29_14h38.44.978,FaceAttractiveness,2022.2.2,Win32,60.06366749,,,,,,,,
,,,,,107.0148,Extremely Unattractive,Extremely  Attractive,mirrored,CFD_BF_214_308_N.png,LCHEEK,1,66.97312588,2.0203,0.035360679,-0.419377652,1,0,0,NextBu,0.625214277,29,0,29,0,1,5e81fd2e6f674202efe1ccb9,female,35,Italian,2022-07-29_14h38.44.978,FaceAttractiveness,2022.2.2,Win32,60.06366749,,,,,,,,
,,,,,110.2846,Extremely Unattractive,Extremely  Attractive,mirrored,CFD_AM_233_236_N.png,NASALTIP,1,18.59971711,1.2057,0.046676096,-0.40523338,1,0,0,NextBu,0.850748468,30,0,30,0,1,5e81fd2e6f674202efe1ccb9,female,35,Italian,2022-07-29_14h38.44.978,FaceAttractiveness,2022.2.2,Win32,60.06366749,,,,,,,,
,,,,,112.7647,Extremely Unattractive,Extremely  Attractive,mirrored,CFD_AF_245_143_N.png,LIP,1,53.53606789,1.6364,0.014144272,-0.381188119,1,0,0,NextBu,0.600772724,31,0,31,0,1,5e81fd2e6f674202efe1ccb9,female,35,Italian,2022-07-29_14h38.44.978,FaceAttractiveness,2022.2.2,Win32,60.06366749,,,,,,,,
,,,,,115.4649,Extremely Unattractive,Extremely  Attractive,mirrored,CFD_AF_237_223_N.png,LCHEEK,1,54.24328147,1.3548,0.028288543,-0.393917963,1,0,0,NextBu,0.537565325,32,0,32,0,1,5e81fd2e6f674202efe1ccb9,female,35,Italian,2022-07-29_14h38.44.978,FaceAttractiveness,2022.2.2,Win32,60.06366749,,,,,,,,
,,,,,117.7528,Extremely Unattractive,Extremely  Attractive,mirrored,CFD_AF_231_357_N.png,FOREHEAD,1,32.74398868,1.9495,0.028288543,-0.382602546,1,0,0,NextBu,0.801990612,33,0,33,0,1,5e81fd2e6f674202efe1ccb9,female,35,Italian,2022-07-29_14h38.44.978,FaceAttractiveness,2022.2.2,Win32,60.06366749,,,,,,,,
,,,,,120.932,Extremely Unattractive,Extremely  Attractive,mirrored,136_M_M_N_A.png,LCHEEK,1,28.3592645,1.1532,-0.055162659,-0.400990099,1,0,0,NextBu,0.722453235,34,0,34,0,1,5e81fd2e6f674202efe1ccb9,female,35,Italian,2022-07-29_14h38.44.978,FaceAttractiveness,2022.2.2,Win32,60.06366749,,,,,,,,
,,,,,123.201,Extremely Unattractive,Extremely  Attractive,mirrored,087_M_M_N_A.png,LIP,1,27.65205092,1.2739,0.00990099,-0.384016973,1,0,0,NextBu,0.76406851,35,0,35,0,1,5e81fd2e6f674202efe1ccb9,female,35,Italian,2022-07-29_14h38.44.978,FaceAttractiveness,2022.2.2,Win32,60.06366749,,,,,,,,
,,,,,125.6149,Extremely Unattractive,Extremely  Attractive,mirrored,035_M_F_N_A.png,LCHEEK,1,32.46110325,1.3531,0.012729844,-0.368458274,1,0,0,NextBu,0.520317494,36,0,36,0,1,5e81fd2e6f674202efe1ccb9,female,35,Italian,2022-07-29_14h38.44.978,FaceAttractiveness,2022.2.2,Win32,60.06366749,,,,,,,,
,,,,,127.8193,Extremely Unattractive,Extremely  Attractive,mirrored,006_M_F_N_A.png,LIP,1,45.89816124,1.3281,0.028288543,-0.372701556,1,0,0,NextBu,0.756719235,37,0,37,0,1,5e81fd2e6f674202efe1ccb9,female,35,Italian,2022-07-29_14h38.44.978,FaceAttractiveness,2022.2.2,Win32,60.06366749,,,,,,,,
,,,,,130.236,Extremely Unattractive,Extremely  Attractive,mirrored,CFD_WM_212_097_N.png,NASALTIP,2,31.47100424,1.1828,0.016973126,-0.39533239,1,0,0,NextBu,0.831345149,38,0,38,0,1,5e81fd2e6f674202efe1ccb9,female,35,Italian,2022-07-29_14h38.44.978,FaceAttractiveness,2022.2.2,Win32,60.06366749,,,,,,,,
,,,,,132.6151,Extremely Unattractive,Extremely  Attractive,mirrored,CFD_WF_250_167_N.png,FOREHEAD,2,14.35643564,1.5202,0.018387553,-0.393917963,1,0,0,NextBu,0.653799855,39,0,39,0,1,5e81fd2e6f674202efe1ccb9,female,35,Italian,2022-07-29_14h38.44.978,FaceAttractiveness,2022.2.2,Win32,60.06366749,,,,,,,,
,,,,,135.232,Extremely Unattractive,Extremely  Attractive,mirrored,CFD_WF_200_099_N.png,NASALTIP,2,30.76379066,2.2102,0.015558699,-0.402404526,1,0,0,NextBu,0.69778356,40,0,40,0,1,5e81fd2e6f674202efe1ccb9,female,35,Italian,2022-07-29_14h38.44.978,FaceAttractiveness,2022.2.2,Win32,60.06366749,,,,,,,,
,,,,,138.5648,Extremely Unattractive,Extremely  Attractive,mirrored,CFD_WF_002_004_N.png,NASALTIP,2,18.74115983,1.1839,0.032531825,-0.393917963,1,0,0,NextBu,0.799634319,41,0,41,0,1,5e81fd2e6f674202efe1ccb9,female,35,Italian,2022-07-29_14h38.44.978,FaceAttractiveness,2022.2.2,Win32,60.06366749,,,,,,,,
,,,,,140.9648,Extremely Unattractive,Extremely  Attractive,mirrored,CFD_LM_203_026_N.png,FOREHEAD,2,19.87270156,1.3203,0.036775106,-0.388260255,1,0,0,NextBu,0.794855381,42,0,42,0,1,5e81fd2e6f674202efe1ccb9,female,35,Italian,2022-07-29_14h38.44.978,FaceAttractiveness,2022.2.2,Win32,60.06366749,,,,,,,,
,,,,,144.3696,Extremely Unattractive,Extremely  Attractive,mirrored,CFD_LM_201_057_N.png,NASALTIP,2,37.83592645,1.3494,-0.043847242,-0.399575672,1,0,0,NextBu,0.501191202,43,0,43,0,1,5e81fd2e6f674202efe1ccb9,female,35,Italian,2022-07-29_14h38.44.978,FaceAttractiveness,2022.2.2,Win32,60.06366749,,,,,,,,
,,,,,146.6151,Extremely Unattractive,Extremely  Attractive,mirrored,CFD_LF_224_176_N.png,FOREHEAD,2,29.91513437,1.3034,0.042432815,-0.40523338,1,0,0,NextBu,0.953133672,44,0,44,0,1,5e81fd2e6f674202efe1ccb9,female,35,Italian,2022-07-29_14h38.44.978,FaceAttractiveness,2022.2.2,Win32,60.06366749,,,,,,,,
,,,,,149.2029,Extremely Unattractive,Extremely  Attractive,mirrored,CFD_BM_234_172_N.png,FOREHEAD,2,32.60254597,1.5161,-0.045261669,-0.410891089,1,0,0,NextBu,0.942065718,45,0,45,0,1,5e81fd2e6f674202efe1ccb9,female,35,Italian,2022-07-29_14h38.44.978,FaceAttractiveness,2022.2.2,Win32,60.06366749,,,,,,,,
,,,,,152.0484,Extremely Unattractive,Extremely  Attractive,mirrored,CFD_BM_213_134_N.png,RCHEEK,2,18.74115983,1.5682,-0.002828854,-0.408062235,1,0,0,NextBu,0.736674336,46,0,46,0,1,5e81fd2e6f674202efe1ccb9,female,35,Italian,2022-07-29_14h38.44.978,FaceAttractiveness,2022.2.2,Win32,60.06366749,,,,,,,,
,,,,,154.9819,Extremely Unattractive,Extremely  Attractive,mirrored,CFD_BF_224_002_N.png,LIP,2,22.9844413,1.2532,-0.001414427,-0.382602546,1,0,0,NextBu,0.941649167,47,0,47,0,1,5e81fd2e6f674202efe1ccb9,female,35,Italian,2022-07-29_14h38.44.978,FaceAttractiveness,2022.2.2,Win32,60.06366749,,,,,,,,
,,,,,157.6481,Extremely Unattractive,Extremely  Attractive,mirrored,CFD_BF_214_308_N.png,RCHEEK,2,66.97312588,1.4871,0.084865629,-0.376944837,1,0,0,NextBu,0.893465538,48,0,48,0,1,5e81fd2e6f674202efe1ccb9,female,35,Italian,2022-07-29_14h38.44.978,FaceAttractiveness,2022.2.2,Win32,60.06366749,,,,,,,,
,,,,,160.7319,Extremely Unattractive,Extremely  Attractive,mirrored,CFD_AM_233_236_N.png,RCHEEK,2,20.57991513,1.4365,0.002828854,-0.361386139,1,0,0,NextBu,0.832754523,49,0,49,0,1,5e81fd2e6f674202efe1ccb9,female,35,Italian,2022-07-29_14h38.44.978,FaceAttractiveness,2022.2.2,Win32,60.06366749,,,,,,,,
,,,,,163.465,Extremely Unattractive,Extremely  Attractive,mirrored,CFD_AF_245_143_N.png,FOREHEAD,2,65.55869873,2.7229,0.011315417,-0.403818953,1,0,0,NextBu,0.738628572,50,0,50,0,1,5e81fd2e6f674202efe1ccb9,female,35,Italian,2022-07-29_14h38.44.978,FaceAttractiveness,2022.2.2,Win32,60.06366749,,,,,,,,
,,,,,171.6563,Extremely Unattractive,Extremely  Attractive,mirrored,CFD_AF_237_223_N.png,FOREHEAD,2,57.35502122,1.283,-0.031117397,-0.388260255,1,0,0,NextBu,0.8347598,51,0,51,0,1,5e81fd2e6f674202efe1ccb9,female,35,Italian,2022-07-29_14h38.44.978,FaceAttractiveness,2022.2.2,Win32,60.06366749,,,,,,,,
,,,,,174.1819,Extremely Unattractive,Extremely  Attractive,mirrored,CFD_AF_231_357_N.png,LIP,2,37.83592645,2.124,-0.01980198,-0.384016973,1,0,0,NextBu,0.699174923,52,0,52,0,1,5e81fd2e6f674202efe1ccb9,female,35,Italian,2022-07-29_14h38.44.978,FaceAttractiveness,2022.2.2,Win32,60.06366749,,,,,,,,
,,,,,177.3981,Extremely Unattractive,Extremely  Attractive,mirrored,136_M_M_N_A.png,RCHEEK,2,21.57001414,1.9186,-0.065063649,-0.384016973,1,0,0,NextBu,0.94381101,53,0,53,0,1,5e81fd2e6f674202efe1ccb9,female,35,Italian,2022-07-29_14h38.44.978,FaceAttractiveness,2022.2.2,Win32,60.06366749,,,,,,,,
,,,,,180.6527,Extremely Unattractive,Extremely  Attractive,mirrored,087_M_M_N_A.png,NASALTIP,2,18.4582744,1.1905,-0.024045262,-0.39533239,1,0,0,NextBu,0.503387185,54,0,54,0,1,5e81fd2e6f674202efe1ccb9,female,35,Italian,2022-07-29_14h38.44.978,FaceAttractiveness,2022.2.2,Win32,60.06366749,,,,,,,,
,,,,,182.8486,Extremely Unattractive,Extremely  Attractive,mirrored,035_M_F_N_A.png,NASALTIP,2,15.06364922,1.2852,-0.016973126,-0.403818953,1,0,0,NextBu,0.911500882,55,0,55,0,1,5e81fd2e6f674202efe1ccb9,female,35,Italian,2022-07-29_14h38.44.978,FaceAttractiveness,2022.2.2,Win32,60.06366749,,,,,,,,
,,,,,185.4152,Extremely Unattractive,Extremely  Attractive,mirrored,006_M_F_N_A.png,NASALTIP,2,34.29985856,1.3864,0.045261669,-0.378359264,1,0,0,NextBu,0.592446267,56,0,56,0,1,5e81fd2e6f674202efe1ccb9,female,35,Italian,2022-07-29_14h38.44.978,FaceAttractiveness,2022.2.2,Win32,60.06366749,,,,,,,,
,,,,,187.736,Extremely Unattractive,Extremely  Attractive,mirrored,CFD_WM_212_097_N.png,FOREHEAD,3,32.46110325,1.3869,0.005657709,-0.392503536,1,0,0,NextBu,0.529419479,57,0,57,0,1,5e81fd2e6f674202efe1ccb9,female,35,Italian,2022-07-29_14h38.44.978,FaceAttractiveness,2022.2.2,Win32,60.06366749,,,,,,,,
,,,,,190.1195,Extremely Unattractive,Extremely  Attractive,mirrored,CFD_WF_250_167_N.png,RCHEEK,3,14.92220651,1.3498,0.016973126,-0.39533239,1,0,0,NextBu,0.72294714,58,0,58,0,1,5e81fd2e6f674202efe1ccb9,female,35,Italian,2022-07-29_14h38.44.978,FaceAttractiveness,2022.2.2,Win32,60.06366749,,,,,,,,
,,,,,193.336,Extremely Unattractive,Extremely  Attractive,mirrored,CFD_WF_200_099_N.png,LIP,3,33.59264498,1.4528,0.052333805,-0.409476662,1,0,0,NextBu,0.6527179,59,0,59,0,1,5e81fd2e6f674202efe1ccb9,female,35,Italian,2022-07-29_14h38.44.978,FaceAttractiveness,2022.2.2,Win32,60.06366749,,,,,,,,
,,,,,195.8485,Extremely Unattractive,Extremely  Attractive,mirrored,CFD_WF_002_004_N.png,FOREHEAD,3,16.61951909,1.2698,0.031117397,-0.415134371,1,0,0,NextBu,0.595526519,60,0,60,0,1,5e81fd2e6f674202efe1ccb9,female,35,Italian,2022-07-29_14h38.44.978,FaceAttractiveness,2022.2.2,Win32,60.06366749,,,,,,,,
,,,,,198.0986,Extremely Unattractive,Extremely  Attractive,mirrored,CFD_LM_203_026_N.png,LIP,3,19.30693069,1.4796,-0.015558699,-0.378359264,1,0,0,NextBu,0.512842922,61,0,61,0,1,5e81fd2e6f674202efe1ccb9,female,35,Italian,2022-07-29_14h38.44.978,FaceAttractiveness,2022.2.2,Win32,60.06366749,,,,,,,,
,,,,,200.4648,Extremely Unattractive,Extremely  Attractive,mirrored,CFD_LM_201_057_N.png,RCHEEK,3,33.16831683,1.2373,0.022630835,-0.388260255,1,0,0,NextBu,0.699021299,62,0,62,0,1,5e81fd2e6f674202efe1ccb9,female,35,Italian,2022-07-29_14h38.44.978,FaceAttractiveness,2022.2.2,Win32,60.06366749,,,,,,,,
,,,,,202.7693,Extremely Unattractive,Extremely  Attractive,mirrored,CFD_LF_224_176_N.png,LCHEEK,3,31.61244696,1.3661,0.00990099,-0.400990099,1,0,0,NextBu,0.844690134,63,0,63,0,1,5e81fd2e6f674202efe1ccb9,female,35,Italian,2022-07-29_14h38.44.978,FaceAttractiveness,2022.2.2,Win32,60.06366749,,,,,,,,
,,,,,205.3194,Extremely Unattractive,Extremely  Attractive,mirrored,CFD_BM_234_172_N.png,NASALTIP,3,35.14851485,1.3165,-0.004243281,-0.412305516,1,0,0,NextBu,0.683367582,64,0,64,0,1,5e81fd2e6f674202efe1ccb9,female,35,Italian,2022-07-29_14h38.44.978,FaceAttractiveness,2022.2.2,Win32,60.06366749,,,,,,,,
,,,,,207.6692,Extremely Unattractive,Extremely  Attractive,mirrored,CFD_BM_213_134_N.png,LIP,3,18.03394625,1.5832,-0.021216407,-0.392503536,1,0,0,NextBu,0.798006919,65,0,65,0,1,5e81fd2e6f674202efe1ccb9,female,35,Italian,2022-07-29_14h38.44.978,FaceAttractiveness,2022.2.2,Win32,60.06366749,,,,,,,,
,,,,,210.5697,Extremely Unattractive,Extremely  Attractive,mirrored,CFD_BF_224_002_N.png,NASALTIP,3,22.84299859,1.7491,-0.012729844,-0.369872702,1,0,0,NextBu,0.697958941,66,0,66,0,1,5e81fd2e6f674202efe1ccb9,female,35,Italian,2022-07-29_14h38.44.978,FaceAttractiveness,2022.2.2,Win32,60.06366749,,,,,,,,
,,,,,214.1821,Extremely Unattractive,Extremely  Attractive,mirrored,CFD_BF_214_308_N.png,NASALTIP,3,68.10466761,1.8211,0.025459689,-0.386845827,1,0,0,NextBu,0.648746929,67,0,67,0,1,5e81fd2e6f674202efe1ccb9,female,35,Italian,2022-07-29_14h38.44.978,FaceAttractiveness,2022.2.2,Win32,60.06366749,,,,,,,,
,,,,,217.518,Extremely Unattractive,Extremely  Attractive,mirrored,CFD_AM_233_236_N.png,LIP,3,16.47807638,1.334,0.015558699,-0.39533239,1,0,0,NextBu,0.941392766,68,0,68,0,1,5e81fd2e6f674202efe1ccb9,female,35,Italian,2022-07-29_14h38.44.978,FaceAttractiveness,2022.2.2,Win32,60.06366749,,,,,,,,
,,,,,220.1863,Extremely Unattractive,Extremely  Attractive,mirrored,CFD_AF_245_143_N.png,LCHEEK,3,60.89108911,2.7826,0.038189533,-0.372701556,1,0,0,NextBu,0.806748461,69,0,69,0,1,5e81fd2e6f674202efe1ccb9,female,35,Italian,2022-07-29_14h38.44.978,FaceAttractiveness,2022.2.2,Win32,60.06366749,,,,,,,,
,,,,,224.1981,Extremely Unattractive,Extremely  Attractive,mirrored,CFD_AF_237_223_N.png,RCHEEK,3,54.95049505,1.2928,0.007072136,-0.408062235,1,0,0,NextBu,0.794296021,70,0,70,0,1,5e81fd2e6f674202efe1ccb9,female,35,Italian,2022-07-29_14h38.44.978,FaceAttractiveness,2022.2.2,Win32,60.06366749,,,,,,,,
,,,,,226.6815,Extremely Unattractive,Extremely  Attractive,mirrored,CFD_AF_231_357_N.png,RCHEEK,3,32.8854314,2.0207,-0.022630835,-0.39533239,1,0,0,NextBu,0.767863721,71,0,71,0,1,5e81fd2e6f674202efe1ccb9,female,35,Italian,2022-07-29_14h38.44.978,FaceAttractiveness,2022.2.2,Win32,60.06366749,,,,,,,,
,,,,,229.8347,Extremely Unattractive,Extremely  Attractive,mirrored,136_M_M_N_A.png,LIP,3,31.61244696,1.2176,-0.052333805,-0.384016973,1,0,0,NextBu,0.556662322,72,0,72,0,1,5e81fd2e6f674202efe1ccb9,female,35,Italian,2022-07-29_14h38.44.978,FaceAttractiveness,2022.2.2,Win32,60.06366749,,,,,,,,
,,,,,231.9649,Extremely Unattractive,Extremely  Attractive,mirrored,087_M_M_N_A.png,LCHEEK,3,30.05657709,1.1372,0.012729844,-0.398161245,1,0,0,NextBu,0.597019771,73,0,73,0,1,5e81fd2e6f674202efe1ccb9,female,35,Italian,2022-07-29_14h38.44.978,FaceAttractiveness,2022.2.2,Win32,60.06366749,,,,,,,,
,,,,,234.0678,Extremely Unattractive,Extremely  Attractive,mirrored,035_M_F_N_A.png,LIP,3,19.44837341,1.251,0.004243281,-0.389674682,1,0,0,NextBu,0.774976112,74,0,74,0,1,5e81fd2e6f674202efe1ccb9,female,35,Italian,2022-07-29_14h38.44.978,FaceAttractiveness,2022.2.2,Win32,60.06366749,,,,,,,,
,,,,,236.4528,Extremely Unattractive,Extremely  Attractive,mirrored,006_M_F_N_A.png,LCHEEK,3,33.16831683,2.2705,-0.035360679,-0.384016973,1,0,0,NextBu,0.520232601,75,0,75,0,1,5e81fd2e6f674202efe1ccb9,female,35,Italian,2022-07-29_14h38.44.978,FaceAttractiveness,2022.2.2,Win32,60.06366749,,,,,,,,
,,,,,239.6822,Extremely Unattractive,Extremely  Attractive,mirrored,CFD_WM_212_097_N.png,LIP,4,32.17821782,1.2346,-0.073550212,-0.376944837,1,0,0,NextBu,0.794726256,76,0,76,0,1,5e81fd2e6f674202efe1ccb9,female,35,Italian,2022-07-29_14h38.44.978,FaceAttractiveness,2022.2.2,Win32,60.06366749,,,,,,,,
,,,,,242.0528,Extremely Unattractive,Extremely  Attractive,mirrored,CFD_WF_250_167_N.png,LIP,4,12.51768034,1.2159,-0.014144272,-0.402404526,1,0,0,NextBu,0.575883253,77,0,77,0,1,5e81fd2e6f674202efe1ccb9,female,35,Italian,2022-07-29_14h38.44.978,FaceAttractiveness,2022.2.2,Win32,60.06366749,,,,,,,,
,,,,,244.353,Extremely Unattractive,Extremely  Attractive,mirrored,CFD_WF_200_099_N.png,RCHEEK,4,35.14851485,2.3144,-0.01980198,-0.388260255,1,0,0,NextBu,0.664283508,78,0,78,0,1,5e81fd2e6f674202efe1ccb9,female,35,Italian,2022-07-29_14h38.44.978,FaceAttractiveness,2022.2.2,Win32,60.06366749,,,,,,,,
,,,,,247.6649,Extremely Unattractive,Extremely  Attractive,mirrored,CFD_WF_002_004_N.png,LCHEEK,4,20.43847242,1.7537,-0.008486563,-0.369872702,1,0,0,NextBu,0.908529439,79,0,79,0,1,5e81fd2e6f674202efe1ccb9,female,35,Italian,2022-07-29_14h38.44.978,FaceAttractiveness,2022.2.2,Win32,60.06366749,,,,,,,,
,,,,,250.8986,Extremely Unattractive,Extremely  Attractive,mirrored,CFD_LM_203_026_N.png,LCHEEK,4,19.02404526,2.6409,0.02970297,-0.369872702,1,0,0,NextBu,0.935839436,80,0,80,0,1,5e81fd2e6f674202efe1ccb9,female,35,Italian,2022-07-29_14h38.44.978,FaceAttractiveness,2022.2.2,Win32,60.06366749,,,,,,,,
,,,,,255.0363,Extremely Unattractive,Extremely  Attractive,mirrored,CFD_LM_201_057_N.png,LIP,4,34.01697313,1.3751,0.007072136,-0.378359264,1,0,0,NextBu,0.826358119,81,0,81,0,1,5e81fd2e6f674202efe1ccb9,female,35,Italian,2022-07-29_14h38.44.978,FaceAttractiveness,2022.2.2,Win32,60.06366749,,,,,,,,
,,,,,257.6027,Extremely Unattractive,Extremely  Attractive,mirrored,CFD_LF_224_176_N.png,LIP,4,30.90523338,2.3207,0,-0.403818953,1,0,0,NextBu,0.8088355,82,0,82,0,1,5e81fd2e6f674202efe1ccb9,female,35,Italian,2022-07-29_14h38.44.978,FaceAttractiveness,2022.2.2,Win32,60.06366749,,,,,,,,
,,,,,261.3362,Extremely Unattractive,Extremely  Attractive,mirrored,CFD_BM_234_172_N.png,RCHEEK,4,35.572843,1.5719,0.050919378,-0.381188119,1,0,0,NextBu,0.684867406,83,0,83,0,1,5e81fd2e6f674202efe1ccb9,female,35,Italian,2022-07-29_14h38.44.978,FaceAttractiveness,2022.2.2,Win32,60.06366749,,,,,,,,
,,,,,264.1196,Extremely Unattractive,Extremely  Attractive,mirrored,CFD_BM_213_134_N.png,NASALTIP,4,19.02404526,1.3163,-0.038189533,-0.376944837,1,0,0,NextBu,0.551420084,84,0,84,0,1,5e81fd2e6f674202efe1ccb9,female,35,Italian,2022-07-29_14h38.44.978,FaceAttractiveness,2022.2.2,Win32,60.06366749,,,,,,,,
,,,,,266.503,Extremely Unattractive,Extremely  Attractive,mirrored,CFD_BF_224_002_N.png,RCHEEK,4,17.32673267,1.1327,0.002828854,-0.406647808,1,0,0,NextBu,0.840375478,85,0,85,0,1,5e81fd2e6f674202efe1ccb9,female,35,Italian,2022-07-29_14h38.44.978,FaceAttractiveness,2022.2.2,Win32,60.06366749,,,,,,,,
,,,,,268.8362,Extremely Unattractive,Extremely  Attractive,mirrored,CFD_BF_214_308_N.png,LIP,4,65.55869873,1.8874,-0.04950495,-0.393917963,1,0,0,NextBu,0.812274287,86,0,86,0,1,5e81fd2e6f674202efe1ccb9,female,35,Italian,2022-07-29_14h38.44.978,FaceAttractiveness,2022.2.2,Win32,60.06366749,,,,,,,,
,,,,,272.2194,Extremely Unattractive,Extremely  Attractive,mirrored,CFD_AM_233_236_N.png,FOREHEAD,4,20.2970297,3.0841,0.015558699,-0.381188119,1,0,0,NextBu,0.811677496,87,0,87,0,1,5e81fd2e6f674202efe1ccb9,female,35,Italian,2022-07-29_14h38.44.978,FaceAttractiveness,2022.2.2,Win32,60.06366749,,,,,,,,
,,,,,276.5194,Extremely Unattractive,Extremely  Attractive,mirrored,CFD_AF_245_143_N.png,NASALTIP,4,58.20367751,2.1993,0.007072136,-0.392503536,1,0,0,NextBu,0.704041028,88,0,88,0,1,5e81fd2e6f674202efe1ccb9,female,35,Italian,2022-07-29_14h38.44.978,FaceAttractiveness,2022.2.2,Win32,60.06366749,,,,,,,,
,,,,,280.3695,Extremely Unattractive,Extremely  Attractive,mirrored,CFD_AF_237_223_N.png,LIP,4,53.96039604,1.2262,-0.031117397,-0.371287129,1,0,0,NextBu,0.603692815,89,0,89,0,1,5e81fd2e6f674202efe1ccb9,female,35,Italian,2022-07-29_14h38.44.978,FaceAttractiveness,2022.2.2,Win32,60.06366749,,,,,,,,
,,,,,282.6488,Extremely Unattractive,Extremely  Attractive,mirrored,CFD_AF_231_357_N.png,NASALTIP,4,32.60254597,1.4696,0.045261669,-0.412305516,1,0,0,NextBu,0.887405014,90,0,90,0,1,5e81fd2e6f674202efe1ccb9,female,35,Italian,2022-07-29_14h38.44.978,FaceAttractiveness,2022.2.2,Win32,60.06366749,,,,,,,,
,,,,,285.3985,Extremely Unattractive,Extremely  Attractive,mirrored,136_M_M_N_A.png,NASALTIP,4,20.2970297,1.12,-0.025459689,-0.374115983,1,0,0,NextBu,0.699993705,91,0,91,0,1,5e81fd2e6f674202efe1ccb9,female,35,Italian,2022-07-29_14h38.44.978,FaceAttractiveness,2022.2.2,Win32,60.06366749,,,,,,,,
,,,,,287.6647,Extremely Unattractive,Extremely  Attractive,mirrored,087_M_M_N_A.png,RCHEEK,4,29.63224894,1.037,-0.033946252,-0.371287129,1,0,0,NextBu,0.756329068,92,0,92,0,1,5e81fd2e6f674202efe1ccb9,female,35,Italian,2022-07-29_14h38.44.978,FaceAttractiveness,2022.2.2,Win32,60.06366749,,,,,,,,
,,,,,289.8027,Extremely Unattractive,Extremely  Attractive,mirrored,035_M_F_N_A.png,FOREHEAD,4,16.33663366,1.0498,0.021216407,-0.372701556,1,0,0,NextBu,0.586717474,93,0,93,0,1,5e81fd2e6f674202efe1ccb9,female,35,Italian,2022-07-29_14h38.44.978,FaceAttractiveness,2022.2.2,Win32,60.06366749,,,,,,,,
,,,,,291.7847,Extremely Unattractive,Extremely  Attractive,mirrored,006_M_F_N_A.png,RCHEEK,4,34.44130127,1.291,0.011315417,-0.371287129,1,0,0,NextBu,0.710079597,94,0,94,0,1,5e81fd2e6f674202efe1ccb9,female,35,Italian,2022-07-29_14h38.44.978,FaceAttractiveness,2022.2.2,Win32,60.06366749,,,,,,,,
,,,,,,,,,,,,,,,,,,,,,,,,,,5e81fd2e6f674202efe1ccb9,female,35,Italian,2022-07-29_14h38.44.978,FaceAttractiveness,2022.2.2,Win32,60.06366749,0,0,0,0,1,Attractiveness,Extremely  Attractive,Extremely Unattractive
,,,,,,,,,,,,,,,,,,,,,,,,,,5e81fd2e6f674202efe1ccb9,female,35,Italian,2022-07-29_14h38.44.978,FaceAttractiveness,2022.2.2,Win32,60.06366749,,,,,,,,
