mouse.x,mouse.y,mouse.leftButton,mouse.midButton,mouse.rightButton,onsetTime,leftText,rightText,sliderDirection,face,lesion,block,slider.response,slider.rt,mouse_5.x,mouse_5.y,mouse_5.leftButton,mouse_5.midButton,mouse_5.rightButton,mouse_5.clicked_name,ITI,originalFaceTrials.thisRepN,originalFaceTrials.thisTrialN,originalFaceTrials.thisN,originalFaceTrials.thisIndex,originalFaceTrials.ran,Name,Gender,Age,Ethnicity,date,expName,psychopyVersion,OS,frameRate,participant,study_id,session,RatingBlockOrder.thisRepN,RatingBlockOrder.thisTrialN,RatingBlockOrder.thisN,RatingBlockOrder.thisIndex,RatingBlockOrder.ran,Task,LeftLabel,RightLabel
0.25,-0.09375,1,0,0,1.2755,Extremely Unattractive,Extremely  Attractive,mirrored,CFD_WM_212_097_N.png,LCHEEK,0,58.07291667,3.0666,0.045572917,-0.41796875,1,0,0,NextBu,0.962872177,0,0,0,0,1,603415af8ffaaa1ada99d014,female,47,black ,2022-07-28_17h17.01.669,FaceAttractiveness,2022.2.2,Win32,60.0528465,603415af8ffaaa1ada99d014,62e28ca91edcb69c59d3a196,62e2a2d3d95a7bc892890ae7,,,,,,,,
,,,,,6.0012,Extremely Unattractive,Extremely  Attractive,mirrored,CFD_WF_250_167_N.png,NASALTIP,0,41.66666667,2.0852,0.0546875,-0.377604167,1,0,0,NextBu,0.858419102,1,0,1,0,1,603415af8ffaaa1ada99d014,female,47,black ,2022-07-28_17h17.01.669,FaceAttractiveness,2022.2.2,Win32,60.0528465,603415af8ffaaa1ada99d014,62e28ca91edcb69c59d3a196,62e2a2d3d95a7bc892890ae7,,,,,,,,
,,,,,9.5973,Extremely Unattractive,Extremely  Attractive,mirrored,CFD_WF_200_099_N.png,NASALTIP,0,40.10416667,2.4457,-0.002604167,-0.368489583,1,0,0,NextBu,0.981172602,2,0,2,0,1,603415af8ffaaa1ada99d014,female,47,black ,2022-07-28_17h17.01.669,FaceAttractiveness,2022.2.2,Win32,60.0528465,603415af8ffaaa1ada99d014,62e28ca91edcb69c59d3a196,62e2a2d3d95a7bc892890ae7,,,,,,,,
,,,,,13.8423,Extremely Unattractive,Extremely  Attractive,mirrored,CFD_WF_002_004_N.png,NASALTIP,0,40.49479167,2.0775,0.001302083,-0.384114583,1,0,0,NextBu,0.568771207,3,0,3,0,1,603415af8ffaaa1ada99d014,female,47,black ,2022-07-28_17h17.01.669,FaceAttractiveness,2022.2.2,Win32,60.0528465,603415af8ffaaa1ada99d014,62e28ca91edcb69c59d3a196,62e2a2d3d95a7bc892890ae7,,,,,,,,
,,,,,17.1726,Extremely Unattractive,Extremely  Attractive,mirrored,CFD_LM_203_026_N.png,LCHEEK,0,60.67708333,2.028,0.037760417,-0.372395833,1,0,0,NextBu,0.703883201,4,0,4,0,1,603415af8ffaaa1ada99d014,female,47,black ,2022-07-28_17h17.01.669,FaceAttractiveness,2022.2.2,Win32,60.0528465,603415af8ffaaa1ada99d014,62e28ca91edcb69c59d3a196,62e2a2d3d95a7bc892890ae7,,,,,,,,
,,,,,20.6192,Extremely Unattractive,Extremely  Attractive,mirrored,CFD_LM_201_057_N.png,LIP,0,59.375,1.5035,0.015625,-0.404947917,1,0,0,NextBu,0.807614833,5,0,5,0,1,603415af8ffaaa1ada99d014,female,47,black ,2022-07-28_17h17.01.669,FaceAttractiveness,2022.2.2,Win32,60.0528465,603415af8ffaaa1ada99d014,62e28ca91edcb69c59d3a196,62e2a2d3d95a7bc892890ae7,,,,,,,,
,,,,,23.6497,Extremely Unattractive,Extremely  Attractive,mirrored,CFD_LF_224_176_N.png,FOREHEAD,0,63.02083333,2.0385,0.059895833,-0.390625,1,0,0,NextBu,0.587894848,6,0,6,0,1,603415af8ffaaa1ada99d014,female,47,black ,2022-07-28_17h17.01.669,FaceAttractiveness,2022.2.2,Win32,60.0528465,603415af8ffaaa1ada99d014,62e28ca91edcb69c59d3a196,62e2a2d3d95a7bc892890ae7,,,,,,,,
,,,,,26.8794,Extremely Unattractive,Extremely  Attractive,mirrored,CFD_BM_234_172_N.png,NASALTIP,0,34.375,2.4898,0.05859375,-0.43359375,1,0,0,NextBu,0.678274388,7,0,7,0,1,603415af8ffaaa1ada99d014,female,47,black ,2022-07-28_17h17.01.669,FaceAttractiveness,2022.2.2,Win32,60.0528465,603415af8ffaaa1ada99d014,62e28ca91edcb69c59d3a196,62e2a2d3d95a7bc892890ae7,,,,,,,,
,,,,,30.7094,Extremely Unattractive,Extremely  Attractive,mirrored,CFD_BM_213_134_N.png,RCHEEK,0,55.33854167,1.5144,0.02734375,-0.391927083,1,0,0,NextBu,0.525180607,8,0,8,0,1,603415af8ffaaa1ada99d014,female,47,black ,2022-07-28_17h17.01.669,FaceAttractiveness,2022.2.2,Win32,60.0528465,603415af8ffaaa1ada99d014,62e28ca91edcb69c59d3a196,62e2a2d3d95a7bc892890ae7,,,,,,,,
,,,,,33.3073,Extremely Unattractive,Extremely  Attractive,mirrored,CFD_BF_224_002_N.png,RCHEEK,0,61.328125,2.3874,0.03515625,-0.407552083,1,0,0,NextBu,0.523628614,9,0,9,0,1,603415af8ffaaa1ada99d014,female,47,black ,2022-07-28_17h17.01.669,FaceAttractiveness,2022.2.2,Win32,60.0528465,603415af8ffaaa1ada99d014,62e28ca91edcb69c59d3a196,62e2a2d3d95a7bc892890ae7,,,,,,,,
,,,,,36.8373,Extremely Unattractive,Extremely  Attractive,mirrored,CFD_BF_214_308_N.png,RCHEEK,0,63.671875,1.5997,0.036458333,-0.368489583,1,0,0,NextBu,0.917547574,10,0,10,0,1,603415af8ffaaa1ada99d014,female,47,black ,2022-07-28_17h17.01.669,FaceAttractiveness,2022.2.2,Win32,60.0528465,603415af8ffaaa1ada99d014,62e28ca91edcb69c59d3a196,62e2a2d3d95a7bc892890ae7,,,,,,,,
,,,,,39.9835,Extremely Unattractive,Extremely  Attractive,mirrored,CFD_AM_233_236_N.png,LCHEEK,0,40.10416667,2.1554,0.0546875,-0.420572917,1,0,0,NextBu,0.74550549,11,0,11,0,1,603415af8ffaaa1ada99d014,female,47,black ,2022-07-28_17h17.01.669,FaceAttractiveness,2022.2.2,Win32,60.0528465,603415af8ffaaa1ada99d014,62e28ca91edcb69c59d3a196,62e2a2d3d95a7bc892890ae7,,,,,,,,
,,,,,43.5136,Extremely Unattractive,Extremely  Attractive,mirrored,CFD_AF_245_143_N.png,LIP,0,25.52083333,2.2682,-0.028645833,-0.397135417,1,0,0,NextBu,0.52688525,12,0,12,0,1,603415af8ffaaa1ada99d014,female,47,black ,2022-07-28_17h17.01.669,FaceAttractiveness,2022.2.2,Win32,60.0528465,603415af8ffaaa1ada99d014,62e28ca91edcb69c59d3a196,62e2a2d3d95a7bc892890ae7,,,,,,,,
,,,,,47.0433,Extremely Unattractive,Extremely  Attractive,mirrored,CFD_AF_237_223_N.png,NASALTIP,0,46.61458333,2.2545,0.0234375,-0.3671875,1,0,0,NextBu,0.785364979,13,0,13,0,1,603415af8ffaaa1ada99d014,female,47,black ,2022-07-28_17h17.01.669,FaceAttractiveness,2022.2.2,Win32,60.0528465,603415af8ffaaa1ada99d014,62e28ca91edcb69c59d3a196,62e2a2d3d95a7bc892890ae7,,,,,,,,
,,,,,50.6732,Extremely Unattractive,Extremely  Attractive,mirrored,CFD_AF_231_357_N.png,RCHEEK,0,59.375,1.5586,0.063802083,-0.388020833,1,0,0,NextBu,0.65754478,14,0,14,0,1,603415af8ffaaa1ada99d014,female,47,black ,2022-07-28_17h17.01.669,FaceAttractiveness,2022.2.2,Win32,60.0528465,603415af8ffaaa1ada99d014,62e28ca91edcb69c59d3a196,62e2a2d3d95a7bc892890ae7,,,,,,,,
,,,,,53.4369,Extremely Unattractive,Extremely  Attractive,mirrored,136_M_M_N_A.png,RCHEEK,0,59.50520833,1.4561,0.048177083,-0.3828125,1,0,0,NextBu,0.705315451,15,0,15,0,1,603415af8ffaaa1ada99d014,female,47,black ,2022-07-28_17h17.01.669,FaceAttractiveness,2022.2.2,Win32,60.0528465,603415af8ffaaa1ada99d014,62e28ca91edcb69c59d3a196,62e2a2d3d95a7bc892890ae7,,,,,,,,
,,,,,56.2504,Extremely Unattractive,Extremely  Attractive,mirrored,087_M_M_N_A.png,LIP,0,52.47395833,1.9388,0.024739583,-0.421875,1,0,0,NextBu,0.907478387,16,0,16,0,1,603415af8ffaaa1ada99d014,female,47,black ,2022-07-28_17h17.01.669,FaceAttractiveness,2022.2.2,Win32,60.0528465,603415af8ffaaa1ada99d014,62e28ca91edcb69c59d3a196,62e2a2d3d95a7bc892890ae7,,,,,,,,
,,,,,60.3461,Extremely Unattractive,Extremely  Attractive,mirrored,035_M_F_N_A.png,FOREHEAD,0,61.328125,1.8697,-0.00390625,-0.423177083,1,0,0,NextBu,0.783205817,17,0,17,0,1,603415af8ffaaa1ada99d014,female,47,black ,2022-07-28_17h17.01.669,FaceAttractiveness,2022.2.2,Win32,60.0528465,603415af8ffaaa1ada99d014,62e28ca91edcb69c59d3a196,62e2a2d3d95a7bc892890ae7,,,,,,,,
,,,,,63.6931,Extremely Unattractive,Extremely  Attractive,mirrored,006_M_F_N_A.png,LIP,0,51.04166667,1.8025,0.048177083,-0.390625,1,0,0,NextBu,0.672805852,18,0,18,0,1,603415af8ffaaa1ada99d014,female,47,black ,2022-07-28_17h17.01.669,FaceAttractiveness,2022.2.2,Win32,60.0528465,603415af8ffaaa1ada99d014,62e28ca91edcb69c59d3a196,62e2a2d3d95a7bc892890ae7,,,,,,,,
,,,,,66.7734,Extremely Unattractive,Extremely  Attractive,mirrored,CFD_WM_212_097_N.png,FOREHEAD,1,73.69791667,1.9944,0.046875,-0.373697917,1,0,0,NextBu,0.520356522,19,0,19,0,1,603415af8ffaaa1ada99d014,female,47,black ,2022-07-28_17h17.01.669,FaceAttractiveness,2022.2.2,Win32,60.0528465,603415af8ffaaa1ada99d014,62e28ca91edcb69c59d3a196,62e2a2d3d95a7bc892890ae7,,,,,,,,
,,,,,70.1046,Extremely Unattractive,Extremely  Attractive,mirrored,CFD_WF_250_167_N.png,LCHEEK,1,52.21354167,1.7023,0.0390625,-0.385416667,1,0,0,NextBu,0.597122335,20,0,20,0,1,603415af8ffaaa1ada99d014,female,47,black ,2022-07-28_17h17.01.669,FaceAttractiveness,2022.2.2,Win32,60.0528465,603415af8ffaaa1ada99d014,62e28ca91edcb69c59d3a196,62e2a2d3d95a7bc892890ae7,,,,,,,,
,,,,,73.3502,Extremely Unattractive,Extremely  Attractive,mirrored,CFD_WF_200_099_N.png,RCHEEK,1,58.59375,2.4073,0.045572917,-0.37890625,1,0,0,NextBu,0.747093455,21,0,21,0,1,603415af8ffaaa1ada99d014,female,47,black ,2022-07-28_17h17.01.669,FaceAttractiveness,2022.2.2,Win32,60.0528465,603415af8ffaaa1ada99d014,62e28ca91edcb69c59d3a196,62e2a2d3d95a7bc892890ae7,,,,,,,,
,,,,,77.1294,Extremely Unattractive,Extremely  Attractive,mirrored,CFD_WF_002_004_N.png,RCHEEK,1,57.55208333,1.4381,0.014322917,-0.391927083,1,0,0,NextBu,0.913841463,22,0,22,0,1,603415af8ffaaa1ada99d014,female,47,black ,2022-07-28_17h17.01.669,FaceAttractiveness,2022.2.2,Win32,60.0528465,603415af8ffaaa1ada99d014,62e28ca91edcb69c59d3a196,62e2a2d3d95a7bc892890ae7,,,,,,,,
,,,,,80.0766,Extremely Unattractive,Extremely  Attractive,mirrored,CFD_LM_203_026_N.png,LIP,1,57.8125,1.9113,0.016927083,-0.391927083,1,0,0,NextBu,0.909649938,23,0,23,0,1,603415af8ffaaa1ada99d014,female,47,black ,2022-07-28_17h17.01.669,FaceAttractiveness,2022.2.2,Win32,60.0528465,603415af8ffaaa1ada99d014,62e28ca91edcb69c59d3a196,62e2a2d3d95a7bc892890ae7,,,,,,,,
,,,,,83.6063,Extremely Unattractive,Extremely  Attractive,mirrored,CFD_LM_201_057_N.png,RCHEEK,1,70.57291667,1.9946,0.045572917,-0.389322917,1,0,0,NextBu,0.864322229,24,0,24,0,1,603415af8ffaaa1ada99d014,female,47,black ,2022-07-28_17h17.01.669,FaceAttractiveness,2022.2.2,Win32,60.0528465,603415af8ffaaa1ada99d014,62e28ca91edcb69c59d3a196,62e2a2d3d95a7bc892890ae7,,,,,,,,
,,,,,87.1699,Extremely Unattractive,Extremely  Attractive,mirrored,CFD_LF_224_176_N.png,LCHEEK,1,69.40104167,1.7641,-0.01171875,-0.401041667,1,0,0,NextBu,0.922973913,25,0,25,0,1,603415af8ffaaa1ada99d014,female,47,black ,2022-07-28_17h17.01.669,FaceAttractiveness,2022.2.2,Win32,60.0528465,603415af8ffaaa1ada99d014,62e28ca91edcb69c59d3a196,62e2a2d3d95a7bc892890ae7,,,,,,,,
,,,,,90.4668,Extremely Unattractive,Extremely  Attractive,mirrored,CFD_BM_234_172_N.png,LCHEEK,1,59.375,1.9539,0.0234375,-0.380208333,1,0,0,NextBu,0.761798673,26,0,26,0,1,603415af8ffaaa1ada99d014,female,47,black ,2022-07-28_17h17.01.669,FaceAttractiveness,2022.2.2,Win32,60.0528465,603415af8ffaaa1ada99d014,62e28ca91edcb69c59d3a196,62e2a2d3d95a7bc892890ae7,,,,,,,,
,,,,,94.0136,Extremely Unattractive,Extremely  Attractive,mirrored,CFD_BM_213_134_N.png,LIP,1,30.078125,2.0961,-0.036458333,-0.365885417,1,0,0,NextBu,0.758350364,27,0,27,0,1,603415af8ffaaa1ada99d014,female,47,black ,2022-07-28_17h17.01.669,FaceAttractiveness,2022.2.2,Win32,60.0528465,603415af8ffaaa1ada99d014,62e28ca91edcb69c59d3a196,62e2a2d3d95a7bc892890ae7,,,,,,,,
,,,,,97.6425,Extremely Unattractive,Extremely  Attractive,mirrored,CFD_BF_224_002_N.png,LIP,1,25.52083333,1.7908,-0.046875,-0.37109375,1,0,0,NextBu,0.681249819,28,0,28,0,1,603415af8ffaaa1ada99d014,female,47,black ,2022-07-28_17h17.01.669,FaceAttractiveness,2022.2.2,Win32,60.0528465,603415af8ffaaa1ada99d014,62e28ca91edcb69c59d3a196,62e2a2d3d95a7bc892890ae7,,,,,,,,
,,,,,100.9077,Extremely Unattractive,Extremely  Attractive,mirrored,CFD_BF_214_308_N.png,LIP,1,27.08333333,1.6968,-0.002604167,-0.37890625,1,0,0,NextBu,0.802457646,29,0,29,0,1,603415af8ffaaa1ada99d014,female,47,black ,2022-07-28_17h17.01.669,FaceAttractiveness,2022.2.2,Win32,60.0528465,603415af8ffaaa1ada99d014,62e28ca91edcb69c59d3a196,62e2a2d3d95a7bc892890ae7,,,,,,,,
,,,,,104.3698,Extremely Unattractive,Extremely  Attractive,mirrored,CFD_AM_233_236_N.png,FOREHEAD,1,49.86979167,1.8091,0.04296875,-0.401041667,1,0,0,NextBu,0.741588696,30,0,30,0,1,603415af8ffaaa1ada99d014,female,47,black ,2022-07-28_17h17.01.669,FaceAttractiveness,2022.2.2,Win32,60.0528465,603415af8ffaaa1ada99d014,62e28ca91edcb69c59d3a196,62e2a2d3d95a7bc892890ae7,,,,,,,,
,,,,,107.5661,Extremely Unattractive,Extremely  Attractive,mirrored,CFD_AF_245_143_N.png,NASALTIP,1,45.83333333,1.8811,0.044270833,-0.375,1,0,0,NextBu,0.56422709,31,0,31,0,1,603415af8ffaaa1ada99d014,female,47,black ,2022-07-28_17h17.01.669,FaceAttractiveness,2022.2.2,Win32,60.0528465,603415af8ffaaa1ada99d014,62e28ca91edcb69c59d3a196,62e2a2d3d95a7bc892890ae7,,,,,,,,
,,,,,110.58,Extremely Unattractive,Extremely  Attractive,mirrored,CFD_AF_237_223_N.png,RCHEEK,1,61.328125,1.669,0.0625,-0.385416667,1,0,0,NextBu,0.688428118,32,0,32,0,1,603415af8ffaaa1ada99d014,female,47,black ,2022-07-28_17h17.01.669,FaceAttractiveness,2022.2.2,Win32,60.0528465,603415af8ffaaa1ada99d014,62e28ca91edcb69c59d3a196,62e2a2d3d95a7bc892890ae7,,,,,,,,
,,,,,113.6267,Extremely Unattractive,Extremely  Attractive,mirrored,CFD_AF_231_357_N.png,NASALTIP,1,49.34895833,1.5237,0.044270833,-0.388020833,1,0,0,NextBu,0.556865833,33,0,33,0,1,603415af8ffaaa1ada99d014,female,47,black ,2022-07-28_17h17.01.669,FaceAttractiveness,2022.2.2,Win32,60.0528465,603415af8ffaaa1ada99d014,62e28ca91edcb69c59d3a196,62e2a2d3d95a7bc892890ae7,,,,,,,,
,,,,,116.4076,Extremely Unattractive,Extremely  Attractive,mirrored,136_M_M_N_A.png,NASALTIP,1,44.66145833,1.6647,0.036458333,-0.377604167,1,0,0,NextBu,0.536720063,34,0,34,0,1,603415af8ffaaa1ada99d014,female,47,black ,2022-07-28_17h17.01.669,FaceAttractiveness,2022.2.2,Win32,60.0528465,603415af8ffaaa1ada99d014,62e28ca91edcb69c59d3a196,62e2a2d3d95a7bc892890ae7,,,,,,,,
,,,,,119.2226,Extremely Unattractive,Extremely  Attractive,mirrored,087_M_M_N_A.png,RCHEEK,1,83.72395833,2.422,0.057291667,-0.369791667,1,0,0,NextBu,0.785169579,35,0,35,0,1,603415af8ffaaa1ada99d014,female,47,black ,2022-07-28_17h17.01.669,FaceAttractiveness,2022.2.2,Win32,60.0528465,603415af8ffaaa1ada99d014,62e28ca91edcb69c59d3a196,62e2a2d3d95a7bc892890ae7,,,,,,,,
,,,,,123.2338,Extremely Unattractive,Extremely  Attractive,mirrored,035_M_F_N_A.png,NASALTIP,1,45.05208333,1.7218,0.020833333,-0.3671875,1,0,0,NextBu,0.726869402,36,0,36,0,1,603415af8ffaaa1ada99d014,female,47,black ,2022-07-28_17h17.01.669,FaceAttractiveness,2022.2.2,Win32,60.0528465,603415af8ffaaa1ada99d014,62e28ca91edcb69c59d3a196,62e2a2d3d95a7bc892890ae7,,,,,,,,
,,,,,126.2806,Extremely Unattractive,Extremely  Attractive,mirrored,006_M_F_N_A.png,FOREHEAD,1,58.59375,1.7807,0.069010417,-0.369791667,1,0,0,NextBu,0.797851532,37,0,37,0,1,603415af8ffaaa1ada99d014,female,47,black ,2022-07-28_17h17.01.669,FaceAttractiveness,2022.2.2,Win32,60.0528465,603415af8ffaaa1ada99d014,62e28ca91edcb69c59d3a196,62e2a2d3d95a7bc892890ae7,,,,,,,,
,,,,,129.4445,Extremely Unattractive,Extremely  Attractive,mirrored,CFD_WM_212_097_N.png,NASALTIP,2,48.046875,2.0193,0.053385417,-0.3671875,1,0,0,NextBu,0.593580172,38,0,38,0,1,603415af8ffaaa1ada99d014,female,47,black ,2022-07-28_17h17.01.669,FaceAttractiveness,2022.2.2,Win32,60.0528465,603415af8ffaaa1ada99d014,62e28ca91edcb69c59d3a196,62e2a2d3d95a7bc892890ae7,,,,,,,,
,,,,,132.6911,Extremely Unattractive,Extremely  Attractive,mirrored,CFD_WF_250_167_N.png,LIP,2,35.28645833,2.0031,0,-0.384114583,1,0,0,NextBu,0.770998194,39,0,39,0,1,603415af8ffaaa1ada99d014,female,47,black ,2022-07-28_17h17.01.669,FaceAttractiveness,2022.2.2,Win32,60.0528465,603415af8ffaaa1ada99d014,62e28ca91edcb69c59d3a196,62e2a2d3d95a7bc892890ae7,,,,,,,,
,,,,,136.2378,Extremely Unattractive,Extremely  Attractive,mirrored,CFD_WF_200_099_N.png,FOREHEAD,2,61.328125,1.9229,0.046875,-0.350260417,1,0,0,NextBu,0.622929609,40,0,40,0,1,603415af8ffaaa1ada99d014,female,47,black ,2022-07-28_17h17.01.669,FaceAttractiveness,2022.2.2,Win32,60.0528465,603415af8ffaaa1ada99d014,62e28ca91edcb69c59d3a196,62e2a2d3d95a7bc892890ae7,,,,,,,,
,,,,,139.4009,Extremely Unattractive,Extremely  Attractive,mirrored,CFD_WF_002_004_N.png,FOREHEAD,2,53.77604167,2.1215,0.015625,-0.395833333,1,0,0,NextBu,0.522391602,41,0,41,0,1,603415af8ffaaa1ada99d014,female,47,black ,2022-07-28_17h17.01.669,FaceAttractiveness,2022.2.2,Win32,60.0528465,603415af8ffaaa1ada99d014,62e28ca91edcb69c59d3a196,62e2a2d3d95a7bc892890ae7,,,,,,,,
,,,,,142.615,Extremely Unattractive,Extremely  Attractive,mirrored,CFD_LM_203_026_N.png,FOREHEAD,2,55.46875,1.6648,0.052083333,-0.373697917,1,0,0,NextBu,0.913026387,42,0,42,0,1,603415af8ffaaa1ada99d014,female,47,black ,2022-07-28_17h17.01.669,FaceAttractiveness,2022.2.2,Win32,60.0528465,603415af8ffaaa1ada99d014,62e28ca91edcb69c59d3a196,62e2a2d3d95a7bc892890ae7,,,,,,,,
,,,,,145.8449,Extremely Unattractive,Extremely  Attractive,mirrored,CFD_LM_201_057_N.png,NASALTIP,2,51.82291667,1.575,0.02734375,-0.395833333,1,0,0,NextBu,0.583100495,43,0,43,0,1,603415af8ffaaa1ada99d014,female,47,black ,2022-07-28_17h17.01.669,FaceAttractiveness,2022.2.2,Win32,60.0528465,603415af8ffaaa1ada99d014,62e28ca91edcb69c59d3a196,62e2a2d3d95a7bc892890ae7,,,,,,,,
,,,,,148.6252,Extremely Unattractive,Extremely  Attractive,mirrored,CFD_LF_224_176_N.png,NASALTIP,2,50.13020833,1.599,0.03515625,-0.393229167,1,0,0,NextBu,0.918217909,44,0,44,0,1,603415af8ffaaa1ada99d014,female,47,black ,2022-07-28_17h17.01.669,FaceAttractiveness,2022.2.2,Win32,60.0528465,603415af8ffaaa1ada99d014,62e28ca91edcb69c59d3a196,62e2a2d3d95a7bc892890ae7,,,,,,,,
,,,,,151.7553,Extremely Unattractive,Extremely  Attractive,mirrored,CFD_BM_234_172_N.png,FOREHEAD,2,61.06770833,1.5643,-0.03125,-0.421875,1,0,0,NextBu,0.654901546,45,0,45,0,1,603415af8ffaaa1ada99d014,female,47,black ,2022-07-28_17h17.01.669,FaceAttractiveness,2022.2.2,Win32,60.0528465,603415af8ffaaa1ada99d014,62e28ca91edcb69c59d3a196,62e2a2d3d95a7bc892890ae7,,,,,,,,
,,,,,154.5359,Extremely Unattractive,Extremely  Attractive,mirrored,CFD_BM_213_134_N.png,LCHEEK,2,67.578125,1.789,-0.020833333,-0.391927083,1,0,0,NextBu,0.907149093,46,0,46,0,1,603415af8ffaaa1ada99d014,female,47,black ,2022-07-28_17h17.01.669,FaceAttractiveness,2022.2.2,Win32,60.0528465,603415af8ffaaa1ada99d014,62e28ca91edcb69c59d3a196,62e2a2d3d95a7bc892890ae7,,,,,,,,
,,,,,157.9332,Extremely Unattractive,Extremely  Attractive,mirrored,CFD_BF_224_002_N.png,LCHEEK,2,53.25520833,1.5031,0.029947917,-0.360677083,1,0,0,NextBu,0.719751056,47,0,47,0,1,603415af8ffaaa1ada99d014,female,47,black ,2022-07-28_17h17.01.669,FaceAttractiveness,2022.2.2,Win32,60.0528465,603415af8ffaaa1ada99d014,62e28ca91edcb69c59d3a196,62e2a2d3d95a7bc892890ae7,,,,,,,,
,,,,,160.93,Extremely Unattractive,Extremely  Attractive,mirrored,CFD_BF_214_308_N.png,FOREHEAD,2,59.63541667,1.8024,0.022135417,-0.388020833,1,0,0,NextBu,0.706840979,48,0,48,0,1,603415af8ffaaa1ada99d014,female,47,black ,2022-07-28_17h17.01.669,FaceAttractiveness,2022.2.2,Win32,60.0528465,603415af8ffaaa1ada99d014,62e28ca91edcb69c59d3a196,62e2a2d3d95a7bc892890ae7,,,,,,,,
,,,,,164.1435,Extremely Unattractive,Extremely  Attractive,mirrored,CFD_AM_233_236_N.png,RCHEEK,2,41.796875,1.8757,0.078125,-0.401041667,1,0,0,NextBu,0.830898266,49,0,49,0,1,603415af8ffaaa1ada99d014,female,47,black ,2022-07-28_17h17.01.669,FaceAttractiveness,2022.2.2,Win32,60.0528465,603415af8ffaaa1ada99d014,62e28ca91edcb69c59d3a196,62e2a2d3d95a7bc892890ae7,,,,,,,,
,,,,,167.5065,Extremely Unattractive,Extremely  Attractive,mirrored,CFD_AF_245_143_N.png,RCHEEK,2,56.38020833,1.6383,0.048177083,-0.38671875,1,0,0,NextBu,0.583602066,50,0,50,0,1,603415af8ffaaa1ada99d014,female,47,black ,2022-07-28_17h17.01.669,FaceAttractiveness,2022.2.2,Win32,60.0528465,603415af8ffaaa1ada99d014,62e28ca91edcb69c59d3a196,62e2a2d3d95a7bc892890ae7,,,,,,,,
,,,,,170.437,Extremely Unattractive,Extremely  Attractive,mirrored,CFD_AF_237_223_N.png,LCHEEK,2,58.07291667,1.5366,0.03515625,-0.377604167,1,0,0,NextBu,0.890089051,51,0,51,0,1,603415af8ffaaa1ada99d014,female,47,black ,2022-07-28_17h17.01.669,FaceAttractiveness,2022.2.2,Win32,60.0528465,603415af8ffaaa1ada99d014,62e28ca91edcb69c59d3a196,62e2a2d3d95a7bc892890ae7,,,,,,,,
,,,,,173.5522,Extremely Unattractive,Extremely  Attractive,mirrored,CFD_AF_231_357_N.png,FOREHEAD,2,54.6875,1.3877,0.046875,-0.388020833,1,0,0,NextBu,0.8567731,52,0,52,0,1,603415af8ffaaa1ada99d014,female,47,black ,2022-07-28_17h17.01.669,FaceAttractiveness,2022.2.2,Win32,60.0528465,603415af8ffaaa1ada99d014,62e28ca91edcb69c59d3a196,62e2a2d3d95a7bc892890ae7,,,,,,,,
,,,,,176.3645,Extremely Unattractive,Extremely  Attractive,mirrored,136_M_M_N_A.png,LIP,2,44.27083333,1.9078,0.015625,-0.390625,1,0,0,NextBu,0.688867811,53,0,53,0,1,603415af8ffaaa1ada99d014,female,47,black ,2022-07-28_17h17.01.669,FaceAttractiveness,2022.2.2,Win32,60.0528465,603415af8ffaaa1ada99d014,62e28ca91edcb69c59d3a196,62e2a2d3d95a7bc892890ae7,,,,,,,,
,,,,,179.8275,Extremely Unattractive,Extremely  Attractive,mirrored,087_M_M_N_A.png,LCHEEK,2,97.78645833,2.1859,0.018229167,-0.41796875,1,0,0,NextBu,0.748765746,54,0,54,0,1,603415af8ffaaa1ada99d014,female,47,black ,2022-07-28_17h17.01.669,FaceAttractiveness,2022.2.2,Win32,60.0528465,603415af8ffaaa1ada99d014,62e28ca91edcb69c59d3a196,62e2a2d3d95a7bc892890ae7,,,,,,,,
,,,,,184.0065,Extremely Unattractive,Extremely  Attractive,mirrored,035_M_F_N_A.png,LIP,2,43.359375,1.4259,0.010416667,-0.373697917,1,0,0,NextBu,0.951734243,55,0,55,0,1,603415af8ffaaa1ada99d014,female,47,black ,2022-07-28_17h17.01.669,FaceAttractiveness,2022.2.2,Win32,60.0528465,603415af8ffaaa1ada99d014,62e28ca91edcb69c59d3a196,62e2a2d3d95a7bc892890ae7,,,,,,,,
,,,,,187.0538,Extremely Unattractive,Extremely  Attractive,mirrored,006_M_F_N_A.png,NASALTIP,2,45.05208333,1.555,0.029947917,-0.377604167,1,0,0,NextBu,0.712594685,56,0,56,0,1,603415af8ffaaa1ada99d014,female,47,black ,2022-07-28_17h17.01.669,FaceAttractiveness,2022.2.2,Win32,60.0528465,603415af8ffaaa1ada99d014,62e28ca91edcb69c59d3a196,62e2a2d3d95a7bc892890ae7,,,,,,,,
,,,,,189.9011,Extremely Unattractive,Extremely  Attractive,mirrored,CFD_WM_212_097_N.png,RCHEEK,3,58.984375,2.3521,0.036458333,-0.397135417,1,0,0,NextBu,0.640748487,57,0,57,0,1,603415af8ffaaa1ada99d014,female,47,black ,2022-07-28_17h17.01.669,FaceAttractiveness,2022.2.2,Win32,60.0528465,603415af8ffaaa1ada99d014,62e28ca91edcb69c59d3a196,62e2a2d3d95a7bc892890ae7,,,,,,,,
,,,,,193.5139,Extremely Unattractive,Extremely  Attractive,mirrored,CFD_WF_250_167_N.png,RCHEEK,3,47.78645833,1.9591,0.04296875,-0.3828125,1,0,0,NextBu,0.643099453,58,0,58,0,1,603415af8ffaaa1ada99d014,female,47,black ,2022-07-28_17h17.01.669,FaceAttractiveness,2022.2.2,Win32,60.0528465,603415af8ffaaa1ada99d014,62e28ca91edcb69c59d3a196,62e2a2d3d95a7bc892890ae7,,,,,,,,
,,,,,196.7274,Extremely Unattractive,Extremely  Attractive,mirrored,CFD_WF_200_099_N.png,LIP,3,22.78645833,2.0194,0.0859375,-0.40234375,1,0,0,NextBu,0.734228102,59,0,59,0,1,603415af8ffaaa1ada99d014,female,47,black ,2022-07-28_17h17.01.669,FaceAttractiveness,2022.2.2,Win32,60.0528465,603415af8ffaaa1ada99d014,62e28ca91edcb69c59d3a196,62e2a2d3d95a7bc892890ae7,,,,,,,,
,,,,,200.3571,Extremely Unattractive,Extremely  Attractive,mirrored,CFD_WF_002_004_N.png,LIP,3,26.69270833,1.6919,-0.041666667,-0.3828125,1,0,0,NextBu,0.734120505,60,0,60,0,1,603415af8ffaaa1ada99d014,female,47,black ,2022-07-28_17h17.01.669,FaceAttractiveness,2022.2.2,Win32,60.0528465,603415af8ffaaa1ada99d014,62e28ca91edcb69c59d3a196,62e2a2d3d95a7bc892890ae7,,,,,,,,
,,,,,203.5875,Extremely Unattractive,Extremely  Attractive,mirrored,CFD_LM_203_026_N.png,RCHEEK,3,52.86458333,1.8086,-0.016927083,-0.393229167,1,0,0,NextBu,0.707706595,61,0,61,0,1,603415af8ffaaa1ada99d014,female,47,black ,2022-07-28_17h17.01.669,FaceAttractiveness,2022.2.2,Win32,60.0528465,603415af8ffaaa1ada99d014,62e28ca91edcb69c59d3a196,62e2a2d3d95a7bc892890ae7,,,,,,,,
,,,,,206.7174,Extremely Unattractive,Extremely  Attractive,mirrored,CFD_LM_201_057_N.png,LCHEEK,3,52.34375,1.7894,0.032552083,-0.385416667,1,0,0,NextBu,0.643213947,62,0,62,0,1,603415af8ffaaa1ada99d014,female,47,black ,2022-07-28_17h17.01.669,FaceAttractiveness,2022.2.2,Win32,60.0528465,603415af8ffaaa1ada99d014,62e28ca91edcb69c59d3a196,62e2a2d3d95a7bc892890ae7,,,,,,,,
,,,,,209.8149,Extremely Unattractive,Extremely  Attractive,mirrored,CFD_LF_224_176_N.png,RCHEEK,3,56.11979167,1.6362,0.013020833,-0.407552083,1,0,0,NextBu,0.831008586,63,0,63,0,1,603415af8ffaaa1ada99d014,female,47,black ,2022-07-28_17h17.01.669,FaceAttractiveness,2022.2.2,Win32,60.0528465,603415af8ffaaa1ada99d014,62e28ca91edcb69c59d3a196,62e2a2d3d95a7bc892890ae7,,,,,,,,
,,,,,212.9117,Extremely Unattractive,Extremely  Attractive,mirrored,CFD_BM_234_172_N.png,LIP,3,45.05208333,1.441,0.024739583,-0.372395833,1,0,0,NextBu,0.678484066,64,0,64,0,1,603415af8ffaaa1ada99d014,female,47,black ,2022-07-28_17h17.01.669,FaceAttractiveness,2022.2.2,Win32,60.0528465,603415af8ffaaa1ada99d014,62e28ca91edcb69c59d3a196,62e2a2d3d95a7bc892890ae7,,,,,,,,
,,,,,215.6253,Extremely Unattractive,Extremely  Attractive,mirrored,CFD_BM_213_134_N.png,NASALTIP,3,54.55729167,1.8609,0.045572917,-0.39453125,1,0,0,NextBu,0.667913416,65,0,65,0,1,603415af8ffaaa1ada99d014,female,47,black ,2022-07-28_17h17.01.669,FaceAttractiveness,2022.2.2,Win32,60.0528465,603415af8ffaaa1ada99d014,62e28ca91edcb69c59d3a196,62e2a2d3d95a7bc892890ae7,,,,,,,,
,,,,,218.3725,Extremely Unattractive,Extremely  Attractive,mirrored,CFD_BF_224_002_N.png,NASALTIP,3,52.734375,1.3393,0.02734375,-0.364583333,1,0,0,NextBu,0.502846364,66,0,66,0,1,603415af8ffaaa1ada99d014,female,47,black ,2022-07-28_17h17.01.669,FaceAttractiveness,2022.2.2,Win32,60.0528465,603415af8ffaaa1ada99d014,62e28ca91edcb69c59d3a196,62e2a2d3d95a7bc892890ae7,,,,,,,,
,,,,,220.9207,Extremely Unattractive,Extremely  Attractive,mirrored,CFD_BF_214_308_N.png,LCHEEK,3,69.921875,2.0522,0.049479167,-0.356770833,1,0,0,NextBu,0.958371922,67,0,67,0,1,603415af8ffaaa1ada99d014,female,47,black ,2022-07-28_17h17.01.669,FaceAttractiveness,2022.2.2,Win32,60.0528465,603415af8ffaaa1ada99d014,62e28ca91edcb69c59d3a196,62e2a2d3d95a7bc892890ae7,,,,,,,,
,,,,,224.5832,Extremely Unattractive,Extremely  Attractive,mirrored,CFD_AM_233_236_N.png,NASALTIP,3,40.49479167,1.6232,0.016927083,-0.3984375,1,0,0,NextBu,0.709630667,68,0,68,0,1,603415af8ffaaa1ada99d014,female,47,black ,2022-07-28_17h17.01.669,FaceAttractiveness,2022.2.2,Win32,60.0528465,603415af8ffaaa1ada99d014,62e28ca91edcb69c59d3a196,62e2a2d3d95a7bc892890ae7,,,,,,,,
,,,,,227.5139,Extremely Unattractive,Extremely  Attractive,mirrored,CFD_AF_245_143_N.png,FOREHEAD,3,72.39583333,1.4417,0.04296875,-0.358072917,1,0,0,NextBu,0.560562921,69,0,69,0,1,603415af8ffaaa1ada99d014,female,47,black ,2022-07-28_17h17.01.669,FaceAttractiveness,2022.2.2,Win32,60.0528465,603415af8ffaaa1ada99d014,62e28ca91edcb69c59d3a196,62e2a2d3d95a7bc892890ae7,,,,,,,,
,,,,,230.144,Extremely Unattractive,Extremely  Attractive,mirrored,CFD_AF_237_223_N.png,LIP,3,47.265625,1.5869,0.055989583,-0.37890625,1,0,0,NextBu,0.588021478,70,0,70,0,1,603415af8ffaaa1ada99d014,female,47,black ,2022-07-28_17h17.01.669,FaceAttractiveness,2022.2.2,Win32,60.0528465,603415af8ffaaa1ada99d014,62e28ca91edcb69c59d3a196,62e2a2d3d95a7bc892890ae7,,,,,,,,
,,,,,232.9581,Extremely Unattractive,Extremely  Attractive,mirrored,CFD_AF_231_357_N.png,LCHEEK,3,76.04166667,1.6034,0.0234375,-0.3515625,1,0,0,NextBu,0.683161404,71,0,71,0,1,603415af8ffaaa1ada99d014,female,47,black ,2022-07-28_17h17.01.669,FaceAttractiveness,2022.2.2,Win32,60.0528465,603415af8ffaaa1ada99d014,62e28ca91edcb69c59d3a196,62e2a2d3d95a7bc892890ae7,,,,,,,,
,,,,,236.0385,Extremely Unattractive,Extremely  Attractive,mirrored,136_M_M_N_A.png,LCHEEK,3,54.94791667,1.8697,0.033854167,-0.364583333,1,0,0,NextBu,0.551795209,72,0,72,0,1,603415af8ffaaa1ada99d014,female,47,black ,2022-07-28_17h17.01.669,FaceAttractiveness,2022.2.2,Win32,60.0528465,603415af8ffaaa1ada99d014,62e28ca91edcb69c59d3a196,62e2a2d3d95a7bc892890ae7,,,,,,,,
,,,,,239.0191,Extremely Unattractive,Extremely  Attractive,mirrored,087_M_M_N_A.png,NASALTIP,3,53.125,1.7476,0.049479167,-0.401041667,1,0,0,NextBu,0.793170799,73,0,73,0,1,603415af8ffaaa1ada99d014,female,47,black ,2022-07-28_17h17.01.669,FaceAttractiveness,2022.2.2,Win32,60.0528465,603415af8ffaaa1ada99d014,62e28ca91edcb69c59d3a196,62e2a2d3d95a7bc892890ae7,,,,,,,,
,,,,,242.1653,Extremely Unattractive,Extremely  Attractive,mirrored,035_M_F_N_A.png,RCHEEK,3,62.63020833,1.5708,0.0078125,-0.390625,1,0,0,NextBu,0.630800891,74,0,74,0,1,603415af8ffaaa1ada99d014,female,47,black ,2022-07-28_17h17.01.669,FaceAttractiveness,2022.2.2,Win32,60.0528465,603415af8ffaaa1ada99d014,62e28ca91edcb69c59d3a196,62e2a2d3d95a7bc892890ae7,,,,,,,,
,,,,,244.9963,Extremely Unattractive,Extremely  Attractive,mirrored,006_M_F_N_A.png,LCHEEK,3,70.18229167,1.7193,0.001302083,-0.354166667,1,0,0,NextBu,0.550676274,75,0,75,0,1,603415af8ffaaa1ada99d014,female,47,black ,2022-07-28_17h17.01.669,FaceAttractiveness,2022.2.2,Win32,60.0528465,603415af8ffaaa1ada99d014,62e28ca91edcb69c59d3a196,62e2a2d3d95a7bc892890ae7,,,,,,,,
,,,,,248.0096,Extremely Unattractive,Extremely  Attractive,mirrored,CFD_WM_212_097_N.png,LIP,4,42.44791667,1.8196,0.020833333,-0.415364583,1,0,0,NextBu,0.665989522,76,0,76,0,1,603415af8ffaaa1ada99d014,female,47,black ,2022-07-28_17h17.01.669,FaceAttractiveness,2022.2.2,Win32,60.0528465,603415af8ffaaa1ada99d014,62e28ca91edcb69c59d3a196,62e2a2d3d95a7bc892890ae7,,,,,,,,
,,,,,251.1738,Extremely Unattractive,Extremely  Attractive,mirrored,CFD_WF_250_167_N.png,FOREHEAD,4,50.52083333,1.6691,0.001302083,-0.390625,1,0,0,NextBu,0.684291367,77,0,77,0,1,603415af8ffaaa1ada99d014,female,47,black ,2022-07-28_17h17.01.669,FaceAttractiveness,2022.2.2,Win32,60.0528465,603415af8ffaaa1ada99d014,62e28ca91edcb69c59d3a196,62e2a2d3d95a7bc892890ae7,,,,,,,,
,,,,,254.2372,Extremely Unattractive,Extremely  Attractive,mirrored,CFD_WF_200_099_N.png,LCHEEK,4,67.44791667,2.3697,-0.018229167,-0.399739583,1,0,0,NextBu,0.640584904,78,0,78,0,1,603415af8ffaaa1ada99d014,female,47,black ,2022-07-28_17h17.01.669,FaceAttractiveness,2022.2.2,Win32,60.0528465,603415af8ffaaa1ada99d014,62e28ca91edcb69c59d3a196,62e2a2d3d95a7bc892890ae7,,,,,,,,
,,,,,257.9665,Extremely Unattractive,Extremely  Attractive,mirrored,CFD_WF_002_004_N.png,LCHEEK,4,58.46354167,1.57,0.033854167,-0.38671875,1,0,0,NextBu,0.507975883,79,0,79,0,1,603415af8ffaaa1ada99d014,female,47,black ,2022-07-28_17h17.01.669,FaceAttractiveness,2022.2.2,Win32,60.0528465,603415af8ffaaa1ada99d014,62e28ca91edcb69c59d3a196,62e2a2d3d95a7bc892890ae7,,,,,,,,
,,,,,260.7304,Extremely Unattractive,Extremely  Attractive,mirrored,CFD_LM_203_026_N.png,NASALTIP,4,42.05729167,2.1564,0.02734375,-0.40625,1,0,0,NextBu,0.747453525,80,0,80,0,1,603415af8ffaaa1ada99d014,female,47,black ,2022-07-28_17h17.01.669,FaceAttractiveness,2022.2.2,Win32,60.0528465,603415af8ffaaa1ada99d014,62e28ca91edcb69c59d3a196,62e2a2d3d95a7bc892890ae7,,,,,,,,
,,,,,264.3106,Extremely Unattractive,Extremely  Attractive,mirrored,CFD_LM_201_057_N.png,FOREHEAD,4,51.43229167,2.0417,0.055989583,-0.376302083,1,0,0,NextBu,0.669985245,81,0,81,0,1,603415af8ffaaa1ada99d014,female,47,black ,2022-07-28_17h17.01.669,FaceAttractiveness,2022.2.2,Win32,60.0528465,603415af8ffaaa1ada99d014,62e28ca91edcb69c59d3a196,62e2a2d3d95a7bc892890ae7,,,,,,,,
,,,,,267.6241,Extremely Unattractive,Extremely  Attractive,mirrored,CFD_LF_224_176_N.png,LIP,4,42.578125,1.6363,0.02734375,-0.375,1,0,0,NextBu,0.828027699,82,0,82,0,1,603415af8ffaaa1ada99d014,female,47,black ,2022-07-28_17h17.01.669,FaceAttractiveness,2022.2.2,Win32,60.0528465,603415af8ffaaa1ada99d014,62e28ca91edcb69c59d3a196,62e2a2d3d95a7bc892890ae7,,,,,,,,
,,,,,270.671,Extremely Unattractive,Extremely  Attractive,mirrored,CFD_BM_234_172_N.png,RCHEEK,4,44.40104167,1.8882,0.020833333,-0.377604167,1,0,0,NextBu,0.843676291,83,0,83,0,1,603415af8ffaaa1ada99d014,female,47,black ,2022-07-28_17h17.01.669,FaceAttractiveness,2022.2.2,Win32,60.0528465,603415af8ffaaa1ada99d014,62e28ca91edcb69c59d3a196,62e2a2d3d95a7bc892890ae7,,,,,,,,
,,,,,274.1673,Extremely Unattractive,Extremely  Attractive,mirrored,CFD_BM_213_134_N.png,FOREHEAD,4,55.59895833,3.4415,0.055989583,-0.364583333,1,0,0,NextBu,0.973592936,84,0,84,0,1,603415af8ffaaa1ada99d014,female,47,black ,2022-07-28_17h17.01.669,FaceAttractiveness,2022.2.2,Win32,60.0528465,603415af8ffaaa1ada99d014,62e28ca91edcb69c59d3a196,62e2a2d3d95a7bc892890ae7,,,,,,,,
,,,,,278.7962,Extremely Unattractive,Extremely  Attractive,mirrored,CFD_BF_224_002_N.png,FOREHEAD,4,70.3125,2.1066,0.016927083,-0.380208333,1,0,0,NextBu,0.607730831,85,0,85,0,1,603415af8ffaaa1ada99d014,female,47,black ,2022-07-28_17h17.01.669,FaceAttractiveness,2022.2.2,Win32,60.0528465,603415af8ffaaa1ada99d014,62e28ca91edcb69c59d3a196,62e2a2d3d95a7bc892890ae7,,,,,,,,
,,,,,282.2589,Extremely Unattractive,Extremely  Attractive,mirrored,CFD_BF_214_308_N.png,NASALTIP,4,21.61458333,1.9908,-0.026041667,-0.3671875,1,0,0,NextBu,0.886040569,86,0,86,0,1,603415af8ffaaa1ada99d014,female,47,black ,2022-07-28_17h17.01.669,FaceAttractiveness,2022.2.2,Win32,60.0528465,603415af8ffaaa1ada99d014,62e28ca91edcb69c59d3a196,62e2a2d3d95a7bc892890ae7,,,,,,,,
,,,,,285.9223,Extremely Unattractive,Extremely  Attractive,mirrored,CFD_AM_233_236_N.png,LIP,4,20.57291667,2.5469,0.015625,-0.4140625,1,0,0,NextBu,0.929154108,87,0,87,0,1,603415af8ffaaa1ada99d014,female,47,black ,2022-07-28_17h17.01.669,FaceAttractiveness,2022.2.2,Win32,60.0528465,603415af8ffaaa1ada99d014,62e28ca91edcb69c59d3a196,62e2a2d3d95a7bc892890ae7,,,,,,,,
,,,,,290.8507,Extremely Unattractive,Extremely  Attractive,mirrored,CFD_AF_245_143_N.png,LCHEEK,4,53.38541667,1.7317,0.024739583,-0.376302083,1,0,0,NextBu,0.7677199,88,0,88,0,1,603415af8ffaaa1ada99d014,female,47,black ,2022-07-28_17h17.01.669,FaceAttractiveness,2022.2.2,Win32,60.0528465,603415af8ffaaa1ada99d014,62e28ca91edcb69c59d3a196,62e2a2d3d95a7bc892890ae7,,,,,,,,
,,,,,294.0476,Extremely Unattractive,Extremely  Attractive,mirrored,CFD_AF_237_223_N.png,FOREHEAD,4,62.63020833,1.4884,0.0546875,-0.384114583,1,0,0,NextBu,0.787163958,89,0,89,0,1,603415af8ffaaa1ada99d014,female,47,black ,2022-07-28_17h17.01.669,FaceAttractiveness,2022.2.2,Win32,60.0528465,603415af8ffaaa1ada99d014,62e28ca91edcb69c59d3a196,62e2a2d3d95a7bc892890ae7,,,,,,,,
,,,,,296.9612,Extremely Unattractive,Extremely  Attractive,mirrored,CFD_AF_231_357_N.png,LIP,4,36.19791667,1.5476,-0.036458333,-0.385416667,1,0,0,NextBu,0.590192032,90,0,90,0,1,603415af8ffaaa1ada99d014,female,47,black ,2022-07-28_17h17.01.669,FaceAttractiveness,2022.2.2,Win32,60.0528465,603415af8ffaaa1ada99d014,62e28ca91edcb69c59d3a196,62e2a2d3d95a7bc892890ae7,,,,,,,,
,,,,,299.7418,Extremely Unattractive,Extremely  Attractive,mirrored,136_M_M_N_A.png,FOREHEAD,4,51.30208333,1.3383,0.028645833,-0.368489583,1,0,0,NextBu,0.955548366,91,0,91,0,1,603415af8ffaaa1ada99d014,female,47,black ,2022-07-28_17h17.01.669,FaceAttractiveness,2022.2.2,Win32,60.0528465,603415af8ffaaa1ada99d014,62e28ca91edcb69c59d3a196,62e2a2d3d95a7bc892890ae7,,,,,,,,
,,,,,302.772,Extremely Unattractive,Extremely  Attractive,mirrored,087_M_M_N_A.png,FOREHEAD,4,73.95833333,1.8235,0.055989583,-0.368489583,1,0,0,NextBu,0.522744524,92,0,92,0,1,603415af8ffaaa1ada99d014,female,47,black ,2022-07-28_17h17.01.669,FaceAttractiveness,2022.2.2,Win32,60.0528465,603415af8ffaaa1ada99d014,62e28ca91edcb69c59d3a196,62e2a2d3d95a7bc892890ae7,,,,,,,,
,,,,,305.8522,Extremely Unattractive,Extremely  Attractive,mirrored,035_M_F_N_A.png,LCHEEK,4,36.84895833,1.6113,0.01953125,-0.377604167,1,0,0,NextBu,0.510886783,93,0,93,0,1,603415af8ffaaa1ada99d014,female,47,black ,2022-07-28_17h17.01.669,FaceAttractiveness,2022.2.2,Win32,60.0528465,603415af8ffaaa1ada99d014,62e28ca91edcb69c59d3a196,62e2a2d3d95a7bc892890ae7,,,,,,,,
,,,,,308.9492,Extremely Unattractive,Extremely  Attractive,mirrored,006_M_F_N_A.png,RCHEEK,4,60.28645833,1.9714,0.041666667,-0.384114583,1,0,0,NextBu,0.765320452,94,0,94,0,1,603415af8ffaaa1ada99d014,female,47,black ,2022-07-28_17h17.01.669,FaceAttractiveness,2022.2.2,Win32,60.0528465,603415af8ffaaa1ada99d014,62e28ca91edcb69c59d3a196,62e2a2d3d95a7bc892890ae7,,,,,,,,
,,,,,,,,,,,,,,,,,,,,,,,,,,603415af8ffaaa1ada99d014,female,47,black ,2022-07-28_17h17.01.669,FaceAttractiveness,2022.2.2,Win32,60.0528465,603415af8ffaaa1ada99d014,62e28ca91edcb69c59d3a196,62e2a2d3d95a7bc892890ae7,0,0,0,0,1,Attractiveness,Extremely  Attractive,Extremely Unattractive
,,,,,,,,,,,,,,,,,,,,,,,,,,603415af8ffaaa1ada99d014,female,47,black ,2022-07-28_17h17.01.669,FaceAttractiveness,2022.2.2,Win32,60.0528465,603415af8ffaaa1ada99d014,62e28ca91edcb69c59d3a196,62e2a2d3d95a7bc892890ae7,,,,,,,,
