mouse.x,mouse.y,mouse.leftButton,mouse.midButton,mouse.rightButton,onsetTime,leftText,rightText,sliderDirection,face,lesion,block,slider.response,slider.rt,mouse_5.x,mouse_5.y,mouse_5.leftButton,mouse_5.midButton,mouse_5.rightButton,mouse_5.clicked_name,ITI,originalFaceTrials.thisRepN,originalFaceTrials.thisTrialN,originalFaceTrials.thisN,originalFaceTrials.thisIndex,originalFaceTrials.ran,Name,Gender,Age,Ethnicity,date,expName,psychopyVersion,OS,frameRate,RatingBlockOrder.thisRepN,RatingBlockOrder.thisTrialN,RatingBlockOrder.thisN,RatingBlockOrder.thisIndex,RatingBlockOrder.ran,Task,LeftLabel,RightLabel
0.051851852,0.003703704,1,0,0,11.357,Extremely  Attractive,Extremely Unattractive,normal,006_M_F_N_A.png,LCHEEK,0,58.35978836,9.111,0.024338624,-0.441798942,1,0,0,NextBu,0.723074336,0,0,0,0,1,610a9a0723dac03a63f15035,Female,39,White,2022-07-28_20h25.57.769,FaceAttractiveness,2022.2.2,MacIntel,57.40528129,,,,,,,,
,,,,,21.98,Extremely  Attractive,Extremely Unattractive,normal,035_M_F_N_A.png,LCHEEK,0,80.58201058,3.548,0.04021164,-0.396296296,1,0,0,NextBu,0.654602864,1,0,1,0,1,610a9a0723dac03a63f15035,Female,39,White,2022-07-28_20h25.57.769,FaceAttractiveness,2022.2.2,MacIntel,57.40528129,,,,,,,,
,,,,,27.751,Extremely  Attractive,Extremely Unattractive,normal,087_M_M_N_A.png,LCHEEK,0,67.35449735,5.017,0.045502646,-0.374074074,1,0,0,NextBu,0.575703234,2,0,2,0,1,610a9a0723dac03a63f15035,Female,39,White,2022-07-28_20h25.57.769,FaceAttractiveness,2022.2.2,MacIntel,57.40528129,,,,,,,,
,,,,,34.138,Extremely  Attractive,Extremely Unattractive,normal,136_M_M_N_A.png,NASALTIP,0,94.76190476,1.993,0.041269841,-0.400529101,1,0,0,NextBu,0.750273168,3,0,3,0,1,610a9a0723dac03a63f15035,Female,39,White,2022-07-28_20h25.57.769,FaceAttractiveness,2022.2.2,MacIntel,57.40528129,,,,,,,,
,,,,,37.49,Extremely  Attractive,Extremely Unattractive,normal,CFD_AF_231_357_N.png,RCHEEK,0,72.11640212,4.025,-0.002116402,-0.38042328,1,0,0,NextBu,0.92670795,4,0,4,0,1,610a9a0723dac03a63f15035,Female,39,White,2022-07-28_20h25.57.769,FaceAttractiveness,2022.2.2,MacIntel,57.40528129,,,,,,,,
,,,,,42.945,Extremely  Attractive,Extremely Unattractive,normal,CFD_AF_237_223_N.png,NASALTIP,0,58.67724868,6.727,0.038095238,-0.399470899,1,0,0,NextBu,0.685685964,5,0,5,0,1,610a9a0723dac03a63f15035,Female,39,White,2022-07-28_20h25.57.769,FaceAttractiveness,2022.2.2,MacIntel,57.40528129,,,,,,,,
,,,,,50.799,Extremely  Attractive,Extremely Unattractive,normal,CFD_AF_245_143_N.png,FOREHEAD,0,77.40740741,3.315,0.026455026,-0.418518519,1,0,0,NextBu,0.979999158,6,0,6,0,1,610a9a0723dac03a63f15035,Female,39,White,2022-07-28_20h25.57.769,FaceAttractiveness,2022.2.2,MacIntel,57.40528129,,,,,,,,
,,,,,62.223,Extremely  Attractive,Extremely Unattractive,normal,CFD_AM_233_236_N.png,LCHEEK,0,92.96296296,3.779,0.04021164,-0.361375661,1,0,0,NextBu,0.970637876,7,0,7,0,1,610a9a0723dac03a63f15035,Female,39,White,2022-07-28_20h25.57.769,FaceAttractiveness,2022.2.2,MacIntel,57.40528129,,,,,,,,
,,,,,67.425,Extremely  Attractive,Extremely Unattractive,normal,CFD_BF_214_308_N.png,NASALTIP,0,72.53968254,5.683,-0.022222222,-0.402645503,1,0,0,NextBu,0.648961632,8,0,8,0,1,610a9a0723dac03a63f15035,Female,39,White,2022-07-28_20h25.57.769,FaceAttractiveness,2022.2.2,MacIntel,57.40528129,,,,,,,,
,,,,,74.516,Extremely  Attractive,Extremely Unattractive,normal,CFD_BF_224_002_N.png,NASALTIP,0,95.92592593,2.761,0.052910053,-0.408994709,1,0,0,NextBu,0.794905533,9,0,9,0,1,610a9a0723dac03a63f15035,Female,39,White,2022-07-28_20h25.57.769,FaceAttractiveness,2022.2.2,MacIntel,57.40528129,,,,,,,,
,,,,,78.902,Extremely  Attractive,Extremely Unattractive,normal,CFD_BM_213_134_N.png,FOREHEAD,0,76.87830688,4.478,0.092063492,-0.383597884,1,0,0,NextBu,0.571976896,10,0,10,0,1,610a9a0723dac03a63f15035,Female,39,White,2022-07-28_20h25.57.769,FaceAttractiveness,2022.2.2,MacIntel,57.40528129,,,,,,,,
,,,,,84.623,Extremely  Attractive,Extremely Unattractive,normal,CFD_BM_234_172_N.png,FOREHEAD,0,86.50793651,10.015,0.031746032,-0.396296296,1,0,0,NextBu,0.870997369,11,0,11,0,1,610a9a0723dac03a63f15035,Female,39,White,2022-07-28_20h25.57.769,FaceAttractiveness,2022.2.2,MacIntel,57.40528129,,,,,,,,
,,,,,96.396,Extremely  Attractive,Extremely Unattractive,normal,CFD_LF_224_176_N.png,RCHEEK,0,64.92063492,4.496,0.012698413,-0.408994709,1,0,0,NextBu,0.881581912,12,0,12,0,1,610a9a0723dac03a63f15035,Female,39,White,2022-07-28_20h25.57.769,FaceAttractiveness,2022.2.2,MacIntel,57.40528129,,,,,,,,
,,,,,102.167,Extremely  Attractive,Extremely Unattractive,normal,CFD_LM_201_057_N.png,NASALTIP,0,92.43386243,2.483,0.081481481,-0.376190476,1,0,0,NextBu,0.512438523,13,0,13,0,1,610a9a0723dac03a63f15035,Female,39,White,2022-07-28_20h25.57.769,FaceAttractiveness,2022.2.2,MacIntel,57.40528129,,,,,,,,
,,,,,105.554,Extremely  Attractive,Extremely Unattractive,normal,CFD_LM_203_026_N.png,FOREHEAD,0,97.51322751,1.841,0.030687831,-0.394179894,1,0,0,NextBu,0.585510842,14,0,14,0,1,610a9a0723dac03a63f15035,Female,39,White,2022-07-28_20h25.57.769,FaceAttractiveness,2022.2.2,MacIntel,57.40528129,,,,,,,,
,,,,,108.572,Extremely  Attractive,Extremely Unattractive,normal,CFD_WF_002_004_N.png,LCHEEK,0,81.32275132,2.311,0.046560847,-0.38994709,1,0,0,NextBu,0.932449875,15,0,15,0,1,610a9a0723dac03a63f15035,Female,39,White,2022-07-28_20h25.57.769,FaceAttractiveness,2022.2.2,MacIntel,57.40528129,,,,,,,,
,,,,,113.308,Extremely  Attractive,Extremely Unattractive,normal,CFD_WF_200_099_N.png,LCHEEK,0,61.42857143,5.363,-0.015873016,-0.387830688,1,0,0,NextBu,0.779312017,16,0,16,0,1,610a9a0723dac03a63f15035,Female,39,White,2022-07-28_20h25.57.769,FaceAttractiveness,2022.2.2,MacIntel,57.40528129,,,,,,,,
,,,,,120.047,Extremely  Attractive,Extremely Unattractive,normal,CFD_WF_250_167_N.png,FOREHEAD,0,100,2.615,0.043386243,-0.350793651,1,0,0,NextBu,0.854542898,17,0,17,0,1,610a9a0723dac03a63f15035,Female,39,White,2022-07-28_20h25.57.769,FaceAttractiveness,2022.2.2,MacIntel,57.40528129,,,,,,,,
,,,,,124.284,Extremely  Attractive,Extremely Unattractive,normal,CFD_WM_212_097_N.png,LCHEEK,0,88.83597884,3.544,0.04973545,-0.423809524,1,0,0,NextBu,0.96514581,18,0,18,0,1,610a9a0723dac03a63f15035,Female,39,White,2022-07-28_20h25.57.769,FaceAttractiveness,2022.2.2,MacIntel,57.40528129,,,,,,,,
,,,,,129.303,Extremely  Attractive,Extremely Unattractive,normal,006_M_F_N_A.png,FOREHEAD,1,50.74074074,5.061,0.015873016,-0.446031746,1,0,0,NextBu,0.66305987,19,0,19,0,1,610a9a0723dac03a63f15035,Female,39,White,2022-07-28_20h25.57.769,FaceAttractiveness,2022.2.2,MacIntel,57.40528129,,,,,,,,
,,,,,135.841,Extremely  Attractive,Extremely Unattractive,normal,035_M_F_N_A.png,NASALTIP,1,95.3968254,1.91,0.087830688,-0.373015873,1,0,0,NextBu,0.83734045,20,0,20,0,1,610a9a0723dac03a63f15035,Female,39,White,2022-07-28_20h25.57.769,FaceAttractiveness,2022.2.2,MacIntel,57.40528129,,,,,,,,
,,,,,139.41,Extremely  Attractive,Extremely Unattractive,normal,087_M_M_N_A.png,FOREHEAD,1,57.83068783,3.446,-0.019047619,-0.38994709,1,0,0,NextBu,0.945908091,21,0,21,0,1,610a9a0723dac03a63f15035,Female,39,White,2022-07-28_20h25.57.769,FaceAttractiveness,2022.2.2,MacIntel,57.40528129,,,,,,,,
,,,,,144.596,Extremely  Attractive,Extremely Unattractive,normal,136_M_M_N_A.png,RCHEEK,1,75.3968254,1.808,-0.031746032,-0.414285714,1,0,0,NextBu,0.693398624,22,0,22,0,1,610a9a0723dac03a63f15035,Female,39,White,2022-07-28_20h25.57.769,FaceAttractiveness,2022.2.2,MacIntel,57.40528129,,,,,,,,
,,,,,147.548,Extremely  Attractive,Extremely Unattractive,normal,CFD_AF_231_357_N.png,NASALTIP,1,71.16402116,2.678,0.057142857,-0.398412698,1,0,0,NextBu,0.956118359,23,0,23,0,1,610a9a0723dac03a63f15035,Female,39,White,2022-07-28_20h25.57.769,FaceAttractiveness,2022.2.2,MacIntel,57.40528129,,,,,,,,
,,,,,151.601,Extremely  Attractive,Extremely Unattractive,normal,CFD_AF_237_223_N.png,FOREHEAD,1,47.98941799,3.81,0.017989418,-0.402645503,1,0,0,NextBu,0.504758702,24,0,24,0,1,610a9a0723dac03a63f15035,Female,39,White,2022-07-28_20h25.57.769,FaceAttractiveness,2022.2.2,MacIntel,57.40528129,,,,,,,,
,,,,,156.521,Extremely  Attractive,Extremely Unattractive,normal,CFD_AF_245_143_N.png,LCHEEK,1,61.85185185,1.409,0.031746032,-0.401587302,1,0,0,NextBu,0.944326264,25,0,25,0,1,610a9a0723dac03a63f15035,Female,39,White,2022-07-28_20h25.57.769,FaceAttractiveness,2022.2.2,MacIntel,57.40528129,,,,,,,,
,,,,,159.191,Extremely  Attractive,Extremely Unattractive,normal,CFD_AM_233_236_N.png,NASALTIP,1,89.68253968,1.29,0.094179894,-0.363492063,1,0,0,NextBu,0.794195193,26,0,26,0,1,610a9a0723dac03a63f15035,Female,39,White,2022-07-28_20h25.57.769,FaceAttractiveness,2022.2.2,MacIntel,57.40528129,,,,,,,,
,,,,,161.658,Extremely  Attractive,Extremely Unattractive,normal,CFD_BF_214_308_N.png,LCHEEK,1,48.94179894,4.432,0.024338624,-0.391005291,1,0,0,NextBu,0.957835461,27,0,27,0,1,610a9a0723dac03a63f15035,Female,39,White,2022-07-28_20h25.57.769,FaceAttractiveness,2022.2.2,MacIntel,57.40528129,,,,,,,,
,,,,,167.997,Extremely  Attractive,Extremely Unattractive,normal,CFD_BF_224_002_N.png,FOREHEAD,1,84.39153439,1.658,0.070899471,-0.396296296,1,0,0,NextBu,0.96688259,28,0,28,0,1,610a9a0723dac03a63f15035,Female,39,White,2022-07-28_20h25.57.769,FaceAttractiveness,2022.2.2,MacIntel,57.40528129,,,,,,,,
,,,,,171.431,Extremely  Attractive,Extremely Unattractive,normal,CFD_BM_213_134_N.png,RCHEEK,1,92.53968254,1.332,0.044444444,-0.387830688,1,0,0,NextBu,0.733799333,29,0,29,0,1,610a9a0723dac03a63f15035,Female,39,White,2022-07-28_20h25.57.769,FaceAttractiveness,2022.2.2,MacIntel,57.40528129,,,,,,,,
,,,,,174.1,Extremely  Attractive,Extremely Unattractive,normal,CFD_BM_234_172_N.png,RCHEEK,1,90.10582011,2.608,0.00952381,-0.38042328,1,0,0,NextBu,0.672608511,30,0,30,0,1,610a9a0723dac03a63f15035,Female,39,White,2022-07-28_20h25.57.769,FaceAttractiveness,2022.2.2,MacIntel,57.40528129,,,,,,,,
,,,,,178.021,Extremely  Attractive,Extremely Unattractive,normal,CFD_LF_224_176_N.png,NASALTIP,1,73.17460317,2.124,-0.011640212,-0.397354497,1,0,0,NextBu,0.911848008,31,0,31,0,1,610a9a0723dac03a63f15035,Female,39,White,2022-07-28_20h25.57.769,FaceAttractiveness,2022.2.2,MacIntel,57.40528129,,,,,,,,
,,,,,181.422,Extremely  Attractive,Extremely Unattractive,normal,CFD_LM_201_057_N.png,RCHEEK,1,71.26984127,2.976,0.030687831,-0.366666667,1,0,0,NextBu,0.900736997,32,0,32,0,1,610a9a0723dac03a63f15035,Female,39,White,2022-07-28_20h25.57.769,FaceAttractiveness,2022.2.2,MacIntel,57.40528129,,,,,,,,
,,,,,185.825,Extremely  Attractive,Extremely Unattractive,normal,CFD_LM_203_026_N.png,RCHEEK,1,93.38624339,1.19,0.037037037,-0.379365079,1,0,0,NextBu,0.99333285,33,0,33,0,1,610a9a0723dac03a63f15035,Female,39,White,2022-07-28_20h25.57.769,FaceAttractiveness,2022.2.2,MacIntel,57.40528129,,,,,,,,
,,,,,188.677,Extremely  Attractive,Extremely Unattractive,normal,CFD_WF_002_004_N.png,FOREHEAD,1,94.44444444,1.658,0.056084656,-0.367724868,1,0,0,NextBu,0.515554575,34,0,34,0,1,610a9a0723dac03a63f15035,Female,39,White,2022-07-28_20h25.57.769,FaceAttractiveness,2022.2.2,MacIntel,57.40528129,,,,,,,,
,,,,,191.578,Extremely  Attractive,Extremely Unattractive,normal,CFD_WF_200_099_N.png,FOREHEAD,1,58.04232804,3.644,-0.045502646,-0.449206349,1,0,0,NextBu,0.662989526,35,0,35,0,1,610a9a0723dac03a63f15035,Female,39,White,2022-07-28_20h25.57.769,FaceAttractiveness,2022.2.2,MacIntel,57.40528129,,,,,,,,
,,,,,196.249,Extremely  Attractive,Extremely Unattractive,normal,CFD_WF_250_167_N.png,NASALTIP,1,100,1.457,-0.032804233,-0.415343915,1,0,0,NextBu,0.973823774,36,0,36,0,1,610a9a0723dac03a63f15035,Female,39,White,2022-07-28_20h25.57.769,FaceAttractiveness,2022.2.2,MacIntel,57.40528129,,,,,,,,
,,,,,199.268,Extremely  Attractive,Extremely Unattractive,normal,CFD_WM_212_097_N.png,LIP,1,100,1.816,0.004232804,-0.411111111,1,0,0,NextBu,0.51293283,37,0,37,0,1,610a9a0723dac03a63f15035,Female,39,White,2022-07-28_20h25.57.769,FaceAttractiveness,2022.2.2,MacIntel,57.40528129,,,,,,,,
,,,,,202.252,Extremely  Attractive,Extremely Unattractive,normal,006_M_F_N_A.png,LIP,2,76.77248677,1.909,0.068783069,-0.358201058,1,0,0,NextBu,0.697056174,38,0,38,0,1,610a9a0723dac03a63f15035,Female,39,White,2022-07-28_20h25.57.769,FaceAttractiveness,2022.2.2,MacIntel,57.40528129,,,,,,,,
,,,,,205.306,Extremely  Attractive,Extremely Unattractive,normal,035_M_F_N_A.png,FOREHEAD,2,69.04761905,3.598,-0.003174603,-0.405820106,1,0,0,NextBu,0.88180113,39,0,39,0,1,610a9a0723dac03a63f15035,Female,39,White,2022-07-28_20h25.57.769,FaceAttractiveness,2022.2.2,MacIntel,57.40528129,,,,,,,,
,,,,,210.342,Extremely  Attractive,Extremely Unattractive,normal,087_M_M_N_A.png,NASALTIP,2,79.84126984,2.29,0.097354497,-0.386772487,1,0,0,NextBu,0.694524737,40,0,40,0,1,610a9a0723dac03a63f15035,Female,39,White,2022-07-28_20h25.57.769,FaceAttractiveness,2022.2.2,MacIntel,57.40528129,,,,,,,,
,,,,,213.744,Extremely  Attractive,Extremely Unattractive,normal,136_M_M_N_A.png,FOREHEAD,2,94.65608466,1.541,0.086772487,-0.384656085,1,0,0,NextBu,0.830256525,41,0,41,0,1,610a9a0723dac03a63f15035,Female,39,White,2022-07-28_20h25.57.769,FaceAttractiveness,2022.2.2,MacIntel,57.40528129,,,,,,,,
,,,,,216.863,Extremely  Attractive,Extremely Unattractive,normal,CFD_AF_231_357_N.png,FOREHEAD,2,50.21164021,2.999,0.085714286,-0.407936508,1,0,0,NextBu,0.875747235,42,0,42,0,1,610a9a0723dac03a63f15035,Female,39,White,2022-07-28_20h25.57.769,FaceAttractiveness,2022.2.2,MacIntel,57.40528129,,,,,,,,
,,,,,221.566,Extremely  Attractive,Extremely Unattractive,normal,CFD_AF_237_223_N.png,RCHEEK,2,57.51322751,2.417,0.037037037,-0.393121693,1,0,0,NextBu,0.521486412,43,0,43,0,1,610a9a0723dac03a63f15035,Female,39,White,2022-07-28_20h25.57.769,FaceAttractiveness,2022.2.2,MacIntel,57.40528129,,,,,,,,
,,,,,225.135,Extremely  Attractive,Extremely Unattractive,normal,CFD_AF_245_143_N.png,RCHEEK,2,77.3015873,1.775,0.025396825,-0.377248677,1,0,0,NextBu,0.885885892,44,0,44,0,1,610a9a0723dac03a63f15035,Female,39,White,2022-07-28_20h25.57.769,FaceAttractiveness,2022.2.2,MacIntel,57.40528129,,,,,,,,
,,,,,228.138,Extremely  Attractive,Extremely Unattractive,normal,CFD_AM_233_236_N.png,RCHEEK,2,89.15343915,1.607,0.086772487,-0.388888889,1,0,0,NextBu,0.700266594,45,0,45,0,1,610a9a0723dac03a63f15035,Female,39,White,2022-07-28_20h25.57.769,FaceAttractiveness,2022.2.2,MacIntel,57.40528129,,,,,,,,
,,,,,230.805,Extremely  Attractive,Extremely Unattractive,normal,CFD_BF_214_308_N.png,FOREHEAD,2,43.96825397,3.844,0.057142857,-0.41957672,1,0,0,NextBu,0.797925924,46,0,46,0,1,610a9a0723dac03a63f15035,Female,39,White,2022-07-28_20h25.57.769,FaceAttractiveness,2022.2.2,MacIntel,57.40528129,,,,,,,,
,,,,,235.876,Extremely  Attractive,Extremely Unattractive,normal,CFD_BF_224_002_N.png,LCHEEK,2,86.2962963,2.613,0.062433862,-0.379365079,1,0,0,NextBu,0.979550034,47,0,47,0,1,610a9a0723dac03a63f15035,Female,39,White,2022-07-28_20h25.57.769,FaceAttractiveness,2022.2.2,MacIntel,57.40528129,,,,,,,,
,,,,,239.812,Extremely  Attractive,Extremely Unattractive,normal,CFD_BM_213_134_N.png,LIP,2,100,1.747,0.016931217,-0.350793651,1,0,0,NextBu,0.893283605,48,0,48,0,1,610a9a0723dac03a63f15035,Female,39,White,2022-07-28_20h25.57.769,FaceAttractiveness,2022.2.2,MacIntel,57.40528129,,,,,,,,
,,,,,242.864,Extremely  Attractive,Extremely Unattractive,normal,CFD_BM_234_172_N.png,NASALTIP,2,91.48148148,1.309,0.016931217,-0.381481481,1,0,0,NextBu,0.661426113,49,0,49,0,1,610a9a0723dac03a63f15035,Female,39,White,2022-07-28_20h25.57.769,FaceAttractiveness,2022.2.2,MacIntel,57.40528129,,,,,,,,
,,,,,245.182,Extremely  Attractive,Extremely Unattractive,normal,CFD_LF_224_176_N.png,FOREHEAD,2,40.15873016,4.578,0.014814815,-0.391005291,1,0,0,NextBu,0.75948128,50,0,50,0,1,610a9a0723dac03a63f15035,Female,39,White,2022-07-28_20h25.57.769,FaceAttractiveness,2022.2.2,MacIntel,57.40528129,,,,,,,,
,,,,,252.637,Extremely  Attractive,Extremely Unattractive,normal,CFD_LM_201_057_N.png,FOREHEAD,2,60.26455026,1.861,0.016931217,-0.436507937,1,0,0,NextBu,0.735016029,51,0,51,0,1,610a9a0723dac03a63f15035,Female,39,White,2022-07-28_20h25.57.769,FaceAttractiveness,2022.2.2,MacIntel,57.40528129,,,,,,,,
,,,,,255.589,Extremely  Attractive,Extremely Unattractive,normal,CFD_LM_203_026_N.png,NASALTIP,2,100,1.042,0.02962963,-0.400529101,1,0,0,NextBu,0.726821214,52,0,52,0,1,610a9a0723dac03a63f15035,Female,39,White,2022-07-28_20h25.57.769,FaceAttractiveness,2022.2.2,MacIntel,57.40528129,,,,,,,,
,,,,,257.942,Extremely  Attractive,Extremely Unattractive,normal,CFD_WF_002_004_N.png,RCHEEK,2,60.58201058,2.132,0.043386243,-0.384656085,1,0,0,NextBu,0.833879935,53,0,53,0,1,610a9a0723dac03a63f15035,Female,39,White,2022-07-28_20h25.57.769,FaceAttractiveness,2022.2.2,MacIntel,57.40528129,,,,,,,,
,,,,,261.677,Extremely  Attractive,Extremely Unattractive,normal,CFD_WF_200_099_N.png,RCHEEK,2,65.02645503,2.597,0.010582011,-0.416402116,1,0,0,NextBu,0.856772059,54,0,54,0,1,610a9a0723dac03a63f15035,Female,39,White,2022-07-28_20h25.57.769,FaceAttractiveness,2022.2.2,MacIntel,57.40528129,,,,,,,,
,,,,,265.563,Extremely  Attractive,Extremely Unattractive,normal,CFD_WF_250_167_N.png,RCHEEK,2,100,1.524,0.050793651,-0.379365079,1,0,0,NextBu,0.628030667,55,0,55,0,1,610a9a0723dac03a63f15035,Female,39,White,2022-07-28_20h25.57.769,FaceAttractiveness,2022.2.2,MacIntel,57.40528129,,,,,,,,
,,,,,268.783,Extremely  Attractive,Extremely Unattractive,normal,CFD_WM_212_097_N.png,FOREHEAD,2,82.06349206,2.597,0.033862434,-0.399470899,1,0,0,NextBu,0.817925021,56,0,56,0,1,610a9a0723dac03a63f15035,Female,39,White,2022-07-28_20h25.57.769,FaceAttractiveness,2022.2.2,MacIntel,57.40528129,,,,,,,,
,,,,,272.584,Extremely  Attractive,Extremely Unattractive,normal,006_M_F_N_A.png,NASALTIP,3,62.59259259,6.452,-0.003174603,-0.407936508,1,0,0,NextBu,0.98825401,57,0,57,0,1,610a9a0723dac03a63f15035,Female,39,White,2022-07-28_20h25.57.769,FaceAttractiveness,2022.2.2,MacIntel,57.40528129,,,,,,,,
,,,,,280.356,Extremely  Attractive,Extremely Unattractive,normal,035_M_F_N_A.png,LIP,3,89.47089947,1.326,0.015873016,-0.415343915,1,0,0,NextBu,0.821311773,58,0,58,0,1,610a9a0723dac03a63f15035,Female,39,White,2022-07-28_20h25.57.769,FaceAttractiveness,2022.2.2,MacIntel,57.40528129,,,,,,,,
,,,,,282.959,Extremely  Attractive,Extremely Unattractive,normal,087_M_M_N_A.png,RCHEEK,3,52.75132275,4.514,0.002116402,-0.402645503,1,0,0,NextBu,0.826009492,59,0,59,0,1,610a9a0723dac03a63f15035,Female,39,White,2022-07-28_20h25.57.769,FaceAttractiveness,2022.2.2,MacIntel,57.40528129,,,,,,,,
,,,,,288.879,Extremely  Attractive,Extremely Unattractive,normal,136_M_M_N_A.png,LCHEEK,3,85.55555556,1.176,0.014814815,-0.405820106,1,0,0,NextBu,0.588183755,60,0,60,0,1,610a9a0723dac03a63f15035,Female,39,White,2022-07-28_20h25.57.769,FaceAttractiveness,2022.2.2,MacIntel,57.40528129,,,,,,,,
,,,,,290.93,Extremely  Attractive,Extremely Unattractive,normal,CFD_AF_231_357_N.png,LCHEEK,3,51.7989418,3.161,0.022222222,-0.444973545,1,0,0,NextBu,0.625998316,61,0,61,0,1,610a9a0723dac03a63f15035,Female,39,White,2022-07-28_20h25.57.769,FaceAttractiveness,2022.2.2,MacIntel,57.40528129,,,,,,,,
,,,,,295.466,Extremely  Attractive,Extremely Unattractive,normal,CFD_AF_237_223_N.png,LCHEEK,3,59.73544974,2.33,0.045502646,-0.399470899,1,0,0,NextBu,0.837187892,62,0,62,0,1,610a9a0723dac03a63f15035,Female,39,White,2022-07-28_20h25.57.769,FaceAttractiveness,2022.2.2,MacIntel,57.40528129,,,,,,,,
,,,,,298.919,Extremely  Attractive,Extremely Unattractive,normal,CFD_AF_245_143_N.png,NASALTIP,3,94.55026455,1.309,0.038095238,-0.423809524,1,0,0,NextBu,0.557603052,63,0,63,0,1,610a9a0723dac03a63f15035,Female,39,White,2022-07-28_20h25.57.769,FaceAttractiveness,2022.2.2,MacIntel,57.40528129,,,,,,,,
,,,,,301.554,Extremely  Attractive,Extremely Unattractive,normal,CFD_AM_233_236_N.png,FOREHEAD,3,87.67195767,1.461,0.015873016,-0.36984127,1,0,0,NextBu,0.79354186,64,0,64,0,1,610a9a0723dac03a63f15035,Female,39,White,2022-07-28_20h25.57.769,FaceAttractiveness,2022.2.2,MacIntel,57.40528129,,,,,,,,
,,,,,304.406,Extremely  Attractive,Extremely Unattractive,normal,CFD_BF_214_308_N.png,LIP,3,76.56084656,2.126,0.047619048,-0.415343915,1,0,0,NextBu,0.77871673,65,0,65,0,1,610a9a0723dac03a63f15035,Female,39,White,2022-07-28_20h25.57.769,FaceAttractiveness,2022.2.2,MacIntel,57.40528129,,,,,,,,
,,,,,307.758,Extremely  Attractive,Extremely Unattractive,normal,CFD_BF_224_002_N.png,RCHEEK,3,89.15343915,1.01,-0.02010582,-0.417460317,1,0,0,NextBu,0.951250476,66,0,66,0,1,610a9a0723dac03a63f15035,Female,39,White,2022-07-28_20h25.57.769,FaceAttractiveness,2022.2.2,MacIntel,57.40528129,,,,,,,,
,,,,,310.127,Extremely  Attractive,Extremely Unattractive,normal,CFD_BM_213_134_N.png,NASALTIP,3,100,0.974,0.071957672,-0.365608466,1,0,0,NextBu,0.813805125,67,0,67,0,1,610a9a0723dac03a63f15035,Female,39,White,2022-07-28_20h25.57.769,FaceAttractiveness,2022.2.2,MacIntel,57.40528129,,,,,,,,
,,,,,312.327,Extremely  Attractive,Extremely Unattractive,normal,CFD_BM_234_172_N.png,LIP,3,100,1.277,0.023280423,-0.361375661,1,0,0,NextBu,0.757425203,68,0,68,0,1,610a9a0723dac03a63f15035,Female,39,White,2022-07-28_20h25.57.769,FaceAttractiveness,2022.2.2,MacIntel,57.40528129,,,,,,,,
,,,,,314.78,Extremely  Attractive,Extremely Unattractive,normal,CFD_LF_224_176_N.png,LCHEEK,3,53.06878307,4.078,-0.004232804,-0.417460317,1,0,0,NextBu,0.747196945,69,0,69,0,1,610a9a0723dac03a63f15035,Female,39,White,2022-07-28_20h25.57.769,FaceAttractiveness,2022.2.2,MacIntel,57.40528129,,,,,,,,
,,,,,320.017,Extremely  Attractive,Extremely Unattractive,normal,CFD_LM_201_057_N.png,LCHEEK,3,71.16402116,1.992,0.038095238,-0.377248677,1,0,0,NextBu,0.864985379,70,0,70,0,1,610a9a0723dac03a63f15035,Female,39,White,2022-07-28_20h25.57.769,FaceAttractiveness,2022.2.2,MacIntel,57.40528129,,,,,,,,
,,,,,323.604,Extremely  Attractive,Extremely Unattractive,normal,CFD_LM_203_026_N.png,LCHEEK,3,84.28571429,1.106,0.055026455,-0.379365079,1,0,0,NextBu,0.85517045,71,0,71,0,1,610a9a0723dac03a63f15035,Female,39,White,2022-07-28_20h25.57.769,FaceAttractiveness,2022.2.2,MacIntel,57.40528129,,,,,,,,
,,,,,325.887,Extremely  Attractive,Extremely Unattractive,normal,CFD_WF_002_004_N.png,LIP,3,100,1.209,-0.00952381,-0.412169312,1,0,0,NextBu,0.750922254,72,0,72,0,1,610a9a0723dac03a63f15035,Female,39,White,2022-07-28_20h25.57.769,FaceAttractiveness,2022.2.2,MacIntel,57.40528129,,,,,,,,
,,,,,328.473,Extremely  Attractive,Extremely Unattractive,normal,CFD_WF_200_099_N.png,NASALTIP,3,83.54497354,6.045,0.04021164,-0.382539683,1,0,0,NextBu,0.713491157,73,0,73,0,1,610a9a0723dac03a63f15035,Female,39,White,2022-07-28_20h25.57.769,FaceAttractiveness,2022.2.2,MacIntel,57.40528129,,,,,,,,
,,,,,335.694,Extremely  Attractive,Extremely Unattractive,normal,CFD_WF_250_167_N.png,LIP,3,100,0.927,0.056084656,-0.379365079,1,0,0,NextBu,0.860375216,74,0,74,0,1,610a9a0723dac03a63f15035,Female,39,White,2022-07-28_20h25.57.769,FaceAttractiveness,2022.2.2,MacIntel,57.40528129,,,,,,,,
,,,,,337.98,Extremely  Attractive,Extremely Unattractive,normal,CFD_WM_212_097_N.png,NASALTIP,3,81.74603175,2.261,0.075132275,-0.374074074,1,0,0,NextBu,0.769101003,75,0,75,0,1,610a9a0723dac03a63f15035,Female,39,White,2022-07-28_20h25.57.769,FaceAttractiveness,2022.2.2,MacIntel,57.40528129,,,,,,,,
,,,,,341.514,Extremely  Attractive,Extremely Unattractive,normal,006_M_F_N_A.png,RCHEEK,4,38.78306878,6.145,-0.004232804,-0.364550265,1,0,0,NextBu,0.82712456,76,0,76,0,1,610a9a0723dac03a63f15035,Female,39,White,2022-07-28_20h25.57.769,FaceAttractiveness,2022.2.2,MacIntel,57.40528129,,,,,,,,
,,,,,350.188,Extremely  Attractive,Extremely Unattractive,normal,035_M_F_N_A.png,RCHEEK,4,85.23809524,1.592,0.092063492,-0.393121693,1,0,0,NextBu,0.890611423,77,0,77,0,1,610a9a0723dac03a63f15035,Female,39,White,2022-07-28_20h25.57.769,FaceAttractiveness,2022.2.2,MacIntel,57.40528129,,,,,,,,
,,,,,353.006,Extremely  Attractive,Extremely Unattractive,normal,087_M_M_N_A.png,LIP,4,98.99470899,2.06,0.039153439,-0.384656085,1,0,0,NextBu,0.74767962,78,0,78,0,1,610a9a0723dac03a63f15035,Female,39,White,2022-07-28_20h25.57.769,FaceAttractiveness,2022.2.2,MacIntel,57.40528129,,,,,,,,
,,,,,356.241,Extremely  Attractive,Extremely Unattractive,normal,136_M_M_N_A.png,LIP,4,100,1.761,0.02010582,-0.403703704,1,0,0,NextBu,0.747894184,79,0,79,0,1,610a9a0723dac03a63f15035,Female,39,White,2022-07-28_20h25.57.769,FaceAttractiveness,2022.2.2,MacIntel,57.40528129,,,,,,,,
,,,,,359.276,Extremely  Attractive,Extremely Unattractive,normal,CFD_AF_231_357_N.png,LIP,4,100,1.427,-0.011640212,-0.373015873,1,0,0,NextBu,0.742586696,80,0,80,0,1,610a9a0723dac03a63f15035,Female,39,White,2022-07-28_20h25.57.769,FaceAttractiveness,2022.2.2,MacIntel,57.40528129,,,,,,,,
,,,,,361.894,Extremely  Attractive,Extremely Unattractive,normal,CFD_AF_237_223_N.png,LIP,4,91.05820106,1.168,-0.039153439,-0.376190476,1,0,0,NextBu,0.847594071,81,0,81,0,1,610a9a0723dac03a63f15035,Female,39,White,2022-07-28_20h25.57.769,FaceAttractiveness,2022.2.2,MacIntel,57.40528129,,,,,,,,
,,,,,364.297,Extremely  Attractive,Extremely Unattractive,normal,CFD_AF_245_143_N.png,LIP,4,86.2962963,1.042,-0.004232804,-0.404761905,1,0,0,NextBu,0.809376118,82,0,82,0,1,610a9a0723dac03a63f15035,Female,39,White,2022-07-28_20h25.57.769,FaceAttractiveness,2022.2.2,MacIntel,57.40528129,,,,,,,,
,,,,,366.532,Extremely  Attractive,Extremely Unattractive,normal,CFD_AM_233_236_N.png,LIP,4,98.46560847,1.241,-0.001058201,-0.362433862,1,0,0,NextBu,0.928593165,83,0,83,0,1,610a9a0723dac03a63f15035,Female,39,White,2022-07-28_20h25.57.769,FaceAttractiveness,2022.2.2,MacIntel,57.40528129,,,,,,,,
,,,,,369.135,Extremely  Attractive,Extremely Unattractive,normal,CFD_BF_214_308_N.png,RCHEEK,4,53.7037037,1.54,0.034920635,-0.437566138,1,0,0,NextBu,0.666958484,84,0,84,0,1,610a9a0723dac03a63f15035,Female,39,White,2022-07-28_20h25.57.769,FaceAttractiveness,2022.2.2,MacIntel,57.40528129,,,,,,,,
,,,,,372.268,Extremely  Attractive,Extremely Unattractive,normal,CFD_BF_224_002_N.png,LIP,4,100,1.295,0.093121693,-0.396296296,1,0,0,NextBu,0.637718083,85,0,85,0,1,610a9a0723dac03a63f15035,Female,39,White,2022-07-28_20h25.57.769,FaceAttractiveness,2022.2.2,MacIntel,57.40528129,,,,,,,,
,,,,,374.621,Extremely  Attractive,Extremely Unattractive,normal,CFD_BM_213_134_N.png,LCHEEK,4,100,1.056,0.063492063,-0.421693122,1,0,0,NextBu,0.691620909,86,0,86,0,1,610a9a0723dac03a63f15035,Female,39,White,2022-07-28_20h25.57.769,FaceAttractiveness,2022.2.2,MacIntel,57.40528129,,,,,,,,
,,,,,376.738,Extremely  Attractive,Extremely Unattractive,normal,CFD_BM_234_172_N.png,LCHEEK,4,92.11640212,3.018,0.046560847,-0.397354497,1,0,0,NextBu,0.663786824,87,0,87,0,1,610a9a0723dac03a63f15035,Female,39,White,2022-07-28_20h25.57.769,FaceAttractiveness,2022.2.2,MacIntel,57.40528129,,,,,,,,
,,,,,380.791,Extremely  Attractive,Extremely Unattractive,normal,CFD_LF_224_176_N.png,LIP,4,100,2.546,0.051851852,-0.377248677,1,0,0,NextBu,0.537803203,88,0,88,0,1,610a9a0723dac03a63f15035,Female,39,White,2022-07-28_20h25.57.769,FaceAttractiveness,2022.2.2,MacIntel,57.40528129,,,,,,,,
,,,,,384.26,Extremely  Attractive,Extremely Unattractive,normal,CFD_LM_201_057_N.png,LIP,4,100,1.924,0.098412698,-0.367724868,1,0,0,NextBu,0.958149545,89,0,89,0,1,610a9a0723dac03a63f15035,Female,39,White,2022-07-28_20h25.57.769,FaceAttractiveness,2022.2.2,MacIntel,57.40528129,,,,,,,,
,,,,,387.479,Extremely  Attractive,Extremely Unattractive,normal,CFD_LM_203_026_N.png,LIP,4,100,1.295,0.052910053,-0.395238095,1,0,0,NextBu,0.670870416,90,0,90,0,1,610a9a0723dac03a63f15035,Female,39,White,2022-07-28_20h25.57.769,FaceAttractiveness,2022.2.2,MacIntel,57.40528129,,,,,,,,
,,,,,390.514,Extremely  Attractive,Extremely Unattractive,normal,CFD_WF_002_004_N.png,NASALTIP,4,92.64550265,3.695,0.02010582,-0.370899471,1,0,0,NextBu,0.651489241,91,0,91,0,1,610a9a0723dac03a63f15035,Female,39,White,2022-07-28_20h25.57.769,FaceAttractiveness,2022.2.2,MacIntel,57.40528129,,,,,,,,
,,,,,395.969,Extremely  Attractive,Extremely Unattractive,normal,CFD_WF_200_099_N.png,LIP,4,83.33333333,12.051,0.065608466,-0.403703704,1,0,0,NextBu,0.915453042,92,0,92,0,1,610a9a0723dac03a63f15035,Female,39,White,2022-07-28_20h25.57.769,FaceAttractiveness,2022.2.2,MacIntel,57.40528129,,,,,,,,
,,,,,409.978,Extremely  Attractive,Extremely Unattractive,normal,CFD_WF_250_167_N.png,LCHEEK,4,96.34920635,1.609,0.076190476,-0.370899471,1,0,0,NextBu,0.864944485,93,0,93,0,1,610a9a0723dac03a63f15035,Female,39,White,2022-07-28_20h25.57.769,FaceAttractiveness,2022.2.2,MacIntel,57.40528129,,,,,,,,
,,,,,413.082,Extremely  Attractive,Extremely Unattractive,normal,CFD_WM_212_097_N.png,RCHEEK,4,78.14814815,1.01,0.074074074,-0.36031746,1,0,0,NextBu,0.654472808,94,0,94,0,1,610a9a0723dac03a63f15035,Female,39,White,2022-07-28_20h25.57.769,FaceAttractiveness,2022.2.2,MacIntel,57.40528129,,,,,,,,
,,,,,,,,,,,,,,,,,,,,,,,,,,610a9a0723dac03a63f15035,Female,39,White,2022-07-28_20h25.57.769,FaceAttractiveness,2022.2.2,MacIntel,57.40528129,0,0,0,0,1,Attractiveness,Extremely  Attractive,Extremely Unattractive
,,,,,,,,,,,,,,,,,,,,,,,,,,610a9a0723dac03a63f15035,Female,39,White,2022-07-28_20h25.57.769,FaceAttractiveness,2022.2.2,MacIntel,57.40528129,,,,,,,,
