mouse.x,mouse.y,mouse.leftButton,mouse.midButton,mouse.rightButton,onsetTime,leftText,rightText,sliderDirection,face,lesion,block,slider.response,slider.rt,mouse_5.x,mouse_5.y,mouse_5.leftButton,mouse_5.midButton,mouse_5.rightButton,mouse_5.clicked_name,ITI,originalFaceTrials.thisRepN,originalFaceTrials.thisTrialN,originalFaceTrials.thisN,originalFaceTrials.thisIndex,originalFaceTrials.ran,Name,Gender,Age,Ethnicity,date,expName,psychopyVersion,OS,frameRate,participant,study_id,session,RatingBlockOrder.thisRepN,RatingBlockOrder.thisTrialN,RatingBlockOrder.thisN,RatingBlockOrder.thisIndex,RatingBlockOrder.ran,Task,LeftLabel,RightLabel
0.212037037,-0.046296296,1,0,0,4.7302,Extremely Unattractive,Extremely  Attractive,mirrored,CFD_WM_212_097_N.png,FOREHEAD,0,34.81481481,2.3208,-0.04537037,-0.394444444,1,0,0,NextBu,0.754673759,0,0,0,0,1,611968b71a9490ef313a564f,Female,45,White,2022-07-29_13h16.26.744,FaceAttractiveness,2022.2.2,Win32,59.13660556,611968b71a9490ef313a564f,62e28ca91edcb69c59d3a196,62e3cf73d79b1b9a0afc488c,,,,,,,,
,,,,,9.8505,Extremely Unattractive,Extremely  Attractive,mirrored,CFD_WF_250_167_N.png,LCHEEK,0,50.27777778,2.3615,0.011111111,-0.390740741,1,0,0,NextBu,0.643767836,1,0,1,0,1,611968b71a9490ef313a564f,Female,45,White,2022-07-29_13h16.26.744,FaceAttractiveness,2022.2.2,Win32,59.13660556,611968b71a9490ef313a564f,62e28ca91edcb69c59d3a196,62e3cf73d79b1b9a0afc488c,,,,,,,,
,,,,,13.6705,Extremely Unattractive,Extremely  Attractive,mirrored,CFD_WF_200_099_N.png,RCHEEK,0,49.81481481,1.5209,0.011111111,-0.410185185,1,0,0,NextBu,0.764231282,2,0,2,0,1,611968b71a9490ef313a564f,Female,45,White,2022-07-29_13h16.26.744,FaceAttractiveness,2022.2.2,Win32,59.13660556,611968b71a9490ef313a564f,62e28ca91edcb69c59d3a196,62e3cf73d79b1b9a0afc488c,,,,,,,,
,,,,,16.4899,Extremely Unattractive,Extremely  Attractive,mirrored,CFD_WF_002_004_N.png,LIP,0,37.87037037,2.893,-0.011111111,-0.390740741,1,0,0,NextBu,0.628460739,3,0,3,0,1,611968b71a9490ef313a564f,Female,45,White,2022-07-29_13h16.26.744,FaceAttractiveness,2022.2.2,Win32,59.13660556,611968b71a9490ef313a564f,62e28ca91edcb69c59d3a196,62e3cf73d79b1b9a0afc488c,,,,,,,,
,,,,,20.8441,Extremely Unattractive,Extremely  Attractive,mirrored,CFD_LM_203_026_N.png,LCHEEK,0,37.5,2.5174,-0.00462963,-0.388888889,1,0,0,NextBu,0.633082778,4,0,4,0,1,611968b71a9490ef313a564f,Female,45,White,2022-07-29_13h16.26.744,FaceAttractiveness,2022.2.2,Win32,59.13660556,611968b71a9490ef313a564f,62e28ca91edcb69c59d3a196,62e3cf73d79b1b9a0afc488c,,,,,,,,
,,,,,24.5974,Extremely Unattractive,Extremely  Attractive,mirrored,CFD_LM_201_057_N.png,LCHEEK,0,49.53703704,1.821,0.025925926,-0.4,1,0,0,NextBu,0.524320545,5,0,5,0,1,611968b71a9490ef313a564f,Female,45,White,2022-07-29_13h16.26.744,FaceAttractiveness,2022.2.2,Win32,59.13660556,611968b71a9490ef313a564f,62e28ca91edcb69c59d3a196,62e3cf73d79b1b9a0afc488c,,,,,,,,
,,,,,27.8017,Extremely Unattractive,Extremely  Attractive,mirrored,CFD_LF_224_176_N.png,NASALTIP,0,53.33333333,2.824,0.036111111,-0.374074074,1,0,0,NextBu,0.520860747,6,0,6,0,1,611968b71a9490ef313a564f,Female,45,White,2022-07-29_13h16.26.744,FaceAttractiveness,2022.2.2,Win32,59.13660556,611968b71a9490ef313a564f,62e28ca91edcb69c59d3a196,62e3cf73d79b1b9a0afc488c,,,,,,,,
,,,,,31.7049,Extremely Unattractive,Extremely  Attractive,mirrored,CFD_BM_234_172_N.png,LCHEEK,0,57.5,2.0376,0.02962963,-0.4,1,0,0,NextBu,0.583638857,7,0,7,0,1,611968b71a9490ef313a564f,Female,45,White,2022-07-29_13h16.26.744,FaceAttractiveness,2022.2.2,Win32,59.13660556,611968b71a9490ef313a564f,62e28ca91edcb69c59d3a196,62e3cf73d79b1b9a0afc488c,,,,,,,,
,,,,,34.8607,Extremely Unattractive,Extremely  Attractive,mirrored,CFD_BM_213_134_N.png,RCHEEK,0,50.18518519,2.0686,0.013888889,-0.394444444,1,0,0,NextBu,0.548726691,8,0,8,0,1,611968b71a9490ef313a564f,Female,45,White,2022-07-29_13h16.26.744,FaceAttractiveness,2022.2.2,Win32,59.13660556,611968b71a9490ef313a564f,62e28ca91edcb69c59d3a196,62e3cf73d79b1b9a0afc488c,,,,,,,,
,,,,,37.9646,Extremely Unattractive,Extremely  Attractive,mirrored,CFD_BF_224_002_N.png,LIP,0,49.72222222,2.2447,0.005555556,-0.387037037,1,0,0,NextBu,0.784378865,9,0,9,0,1,611968b71a9490ef313a564f,Female,45,White,2022-07-29_13h16.26.744,FaceAttractiveness,2022.2.2,Win32,59.13660556,611968b71a9490ef313a564f,62e28ca91edcb69c59d3a196,62e3cf73d79b1b9a0afc488c,,,,,,,,
,,,,,41.6143,Extremely Unattractive,Extremely  Attractive,mirrored,CFD_BF_214_308_N.png,RCHEEK,0,61.94444444,1.7677,-0.008333333,-0.396296296,1,0,0,NextBu,0.658962777,10,0,10,0,1,611968b71a9490ef313a564f,Female,45,White,2022-07-29_13h16.26.744,FaceAttractiveness,2022.2.2,Win32,59.13660556,611968b71a9490ef313a564f,62e28ca91edcb69c59d3a196,62e3cf73d79b1b9a0afc488c,,,,,,,,
,,,,,45.1848,Extremely Unattractive,Extremely  Attractive,mirrored,CFD_AM_233_236_N.png,RCHEEK,0,35.46296296,2.1462,-0.022222222,-0.39537037,1,0,0,NextBu,0.677503741,11,0,11,0,1,611968b71a9490ef313a564f,Female,45,White,2022-07-29_13h16.26.744,FaceAttractiveness,2022.2.2,Win32,59.13660556,611968b71a9490ef313a564f,62e28ca91edcb69c59d3a196,62e3cf73d79b1b9a0afc488c,,,,,,,,
,,,,,48.5882,Extremely Unattractive,Extremely  Attractive,mirrored,CFD_AF_245_143_N.png,RCHEEK,0,62.31481481,1.8341,-0.001851852,-0.399074074,1,0,0,NextBu,0.674050589,12,0,12,0,1,611968b71a9490ef313a564f,Female,45,White,2022-07-29_13h16.26.744,FaceAttractiveness,2022.2.2,Win32,59.13660556,611968b71a9490ef313a564f,62e28ca91edcb69c59d3a196,62e3cf73d79b1b9a0afc488c,,,,,,,,
,,,,,51.9083,Extremely Unattractive,Extremely  Attractive,mirrored,CFD_AF_237_223_N.png,LIP,0,62.40740741,2.3051,0.019444444,-0.388888889,1,0,0,NextBu,0.868043944,13,0,13,0,1,611968b71a9490ef313a564f,Female,45,White,2022-07-29_13h16.26.744,FaceAttractiveness,2022.2.2,Win32,59.13660556,611968b71a9490ef313a564f,62e28ca91edcb69c59d3a196,62e3cf73d79b1b9a0afc488c,,,,,,,,
,,,,,55.7499,Extremely Unattractive,Extremely  Attractive,mirrored,CFD_AF_231_357_N.png,FOREHEAD,0,50.27777778,2.0579,-0.012037037,-0.391666667,1,0,0,NextBu,0.683254941,14,0,14,0,1,611968b71a9490ef313a564f,Female,45,White,2022-07-29_13h16.26.744,FaceAttractiveness,2022.2.2,Win32,59.13660556,611968b71a9490ef313a564f,62e28ca91edcb69c59d3a196,62e3cf73d79b1b9a0afc488c,,,,,,,,
,,,,,59.0323,Extremely Unattractive,Extremely  Attractive,mirrored,136_M_M_N_A.png,FOREHEAD,0,38.24074074,1.6947,0.014814815,-0.393518519,1,0,0,NextBu,0.72042105,15,0,15,0,1,611968b71a9490ef313a564f,Female,45,White,2022-07-29_13h16.26.744,FaceAttractiveness,2022.2.2,Win32,59.13660556,611968b71a9490ef313a564f,62e28ca91edcb69c59d3a196,62e3cf73d79b1b9a0afc488c,,,,,,,,
,,,,,62.2852,Extremely Unattractive,Extremely  Attractive,mirrored,087_M_M_N_A.png,LIP,0,50.27777778,2.2716,-0.003703704,-0.410185185,1,0,0,NextBu,0.8312414,16,0,16,0,1,611968b71a9490ef313a564f,Female,45,White,2022-07-29_13h16.26.744,FaceAttractiveness,2022.2.2,Win32,59.13660556,611968b71a9490ef313a564f,62e28ca91edcb69c59d3a196,62e3cf73d79b1b9a0afc488c,,,,,,,,
,,,,,66.2721,Extremely Unattractive,Extremely  Attractive,mirrored,035_M_F_N_A.png,NASALTIP,0,37.03703704,2.228,0.023148148,-0.398148148,1,0,0,NextBu,0.520064701,17,0,17,0,1,611968b71a9490ef313a564f,Female,45,White,2022-07-29_13h16.26.744,FaceAttractiveness,2022.2.2,Win32,59.13660556,611968b71a9490ef313a564f,62e28ca91edcb69c59d3a196,62e3cf73d79b1b9a0afc488c,,,,,,,,
,,,,,69.6265,Extremely Unattractive,Extremely  Attractive,mirrored,006_M_F_N_A.png,NASALTIP,0,49.81481481,2.2928,-0.002777778,-0.413888889,1,0,0,NextBu,0.847630743,18,0,18,0,1,611968b71a9490ef313a564f,Female,45,White,2022-07-29_13h16.26.744,FaceAttractiveness,2022.2.2,Win32,59.13660556,611968b71a9490ef313a564f,62e28ca91edcb69c59d3a196,62e3cf73d79b1b9a0afc488c,,,,,,,,
,,,,,73.7634,Extremely Unattractive,Extremely  Attractive,mirrored,CFD_WM_212_097_N.png,NASALTIP,1,49.90740741,1.8581,-0.012962963,-0.396296296,1,0,0,NextBu,0.702776126,19,0,19,0,1,611968b71a9490ef313a564f,Female,45,White,2022-07-29_13h16.26.744,FaceAttractiveness,2022.2.2,Win32,59.13660556,611968b71a9490ef313a564f,62e28ca91edcb69c59d3a196,62e3cf73d79b1b9a0afc488c,,,,,,,,
,,,,,76.933,Extremely Unattractive,Extremely  Attractive,mirrored,CFD_WF_250_167_N.png,LIP,1,49.72222222,1.3827,-0.011111111,-0.392592593,1,0,0,NextBu,0.918936551,20,0,20,0,1,611968b71a9490ef313a564f,Female,45,White,2022-07-29_13h16.26.744,FaceAttractiveness,2022.2.2,Win32,59.13660556,611968b71a9490ef313a564f,62e28ca91edcb69c59d3a196,62e3cf73d79b1b9a0afc488c,,,,,,,,
,,,,,79.8192,Extremely Unattractive,Extremely  Attractive,mirrored,CFD_WF_200_099_N.png,LIP,1,49.81481481,1.6667,0.00462963,-0.364814815,1,0,0,NextBu,0.6900944,21,0,21,0,1,611968b71a9490ef313a564f,Female,45,White,2022-07-29_13h16.26.744,FaceAttractiveness,2022.2.2,Win32,59.13660556,611968b71a9490ef313a564f,62e28ca91edcb69c59d3a196,62e3cf73d79b1b9a0afc488c,,,,,,,,
,,,,,82.6056,Extremely Unattractive,Extremely  Attractive,mirrored,CFD_WF_002_004_N.png,RCHEEK,1,39.72222222,1.8455,0.017592593,-0.384259259,1,0,0,NextBu,0.889036682,22,0,22,0,1,611968b71a9490ef313a564f,Female,45,White,2022-07-29_13h16.26.744,FaceAttractiveness,2022.2.2,Win32,59.13660556,611968b71a9490ef313a564f,62e28ca91edcb69c59d3a196,62e3cf73d79b1b9a0afc488c,,,,,,,,
,,,,,86.0092,Extremely Unattractive,Extremely  Attractive,mirrored,CFD_LM_203_026_N.png,NASALTIP,1,36.85185185,1.7282,0.043518519,-0.406481481,1,0,0,NextBu,0.584767851,23,0,23,0,1,611968b71a9490ef313a564f,Female,45,White,2022-07-29_13h16.26.744,FaceAttractiveness,2022.2.2,Win32,59.13660556,611968b71a9490ef313a564f,62e28ca91edcb69c59d3a196,62e3cf73d79b1b9a0afc488c,,,,,,,,
,,,,,89.0114,Extremely Unattractive,Extremely  Attractive,mirrored,CFD_LM_201_057_N.png,NASALTIP,1,49.81481481,1.3488,0.013888889,-0.381481481,1,0,0,NextBu,0.668528302,24,0,24,0,1,611968b71a9490ef313a564f,Female,45,White,2022-07-29_13h16.26.744,FaceAttractiveness,2022.2.2,Win32,59.13660556,611968b71a9490ef313a564f,62e28ca91edcb69c59d3a196,62e3cf73d79b1b9a0afc488c,,,,,,,,
,,,,,91.4977,Extremely Unattractive,Extremely  Attractive,mirrored,CFD_LF_224_176_N.png,LIP,1,61.01851852,1.5825,-0.037962963,-0.382407407,1,0,0,NextBu,0.529311862,25,0,25,0,1,611968b71a9490ef313a564f,Female,45,White,2022-07-29_13h16.26.744,FaceAttractiveness,2022.2.2,Win32,59.13660556,611968b71a9490ef313a564f,62e28ca91edcb69c59d3a196,62e3cf73d79b1b9a0afc488c,,,,,,,,
,,,,,94.1709,Extremely Unattractive,Extremely  Attractive,mirrored,CFD_BM_234_172_N.png,FOREHEAD,1,59.62962963,1.5838,0.009259259,-0.368518519,1,0,0,NextBu,0.507036707,26,0,26,0,1,611968b71a9490ef313a564f,Female,45,White,2022-07-29_13h16.26.744,FaceAttractiveness,2022.2.2,Win32,59.13660556,611968b71a9490ef313a564f,62e28ca91edcb69c59d3a196,62e3cf73d79b1b9a0afc488c,,,,,,,,
,,,,,96.7861,Extremely Unattractive,Extremely  Attractive,mirrored,CFD_BM_213_134_N.png,NASALTIP,1,39.35185185,1.7842,-0.025925926,-0.396296296,1,0,0,NextBu,0.666949233,27,0,27,0,1,611968b71a9490ef313a564f,Female,45,White,2022-07-29_13h16.26.744,FaceAttractiveness,2022.2.2,Win32,59.13660556,611968b71a9490ef313a564f,62e28ca91edcb69c59d3a196,62e3cf73d79b1b9a0afc488c,,,,,,,,
,,,,,99.7391,Extremely Unattractive,Extremely  Attractive,mirrored,CFD_BF_224_002_N.png,NASALTIP,1,49.62962963,1.9456,-0.015740741,-0.396296296,1,0,0,NextBu,0.999485651,28,0,28,0,1,611968b71a9490ef313a564f,Female,45,White,2022-07-29_13h16.26.744,FaceAttractiveness,2022.2.2,Win32,59.13660556,611968b71a9490ef313a564f,62e28ca91edcb69c59d3a196,62e3cf73d79b1b9a0afc488c,,,,,,,,
,,,,,103.1928,Extremely Unattractive,Extremely  Attractive,mirrored,CFD_BF_214_308_N.png,NASALTIP,1,63.88888889,1.3129,-0.001851852,-0.407407407,1,0,0,NextBu,0.666163862,29,0,29,0,1,611968b71a9490ef313a564f,Female,45,White,2022-07-29_13h16.26.744,FaceAttractiveness,2022.2.2,Win32,59.13660556,611968b71a9490ef313a564f,62e28ca91edcb69c59d3a196,62e3cf73d79b1b9a0afc488c,,,,,,,,
,,,,,105.8124,Extremely Unattractive,Extremely  Attractive,mirrored,CFD_AM_233_236_N.png,NASALTIP,1,37.77777778,3.3516,0.027777778,-0.425,1,0,0,NextBu,0.897348188,30,0,30,0,1,611968b71a9490ef313a564f,Female,45,White,2022-07-29_13h16.26.744,FaceAttractiveness,2022.2.2,Win32,59.13660556,611968b71a9490ef313a564f,62e28ca91edcb69c59d3a196,62e3cf73d79b1b9a0afc488c,,,,,,,,
,,,,,110.7331,Extremely Unattractive,Extremely  Attractive,mirrored,CFD_AF_245_143_N.png,NASALTIP,1,62.12962963,1.509,0.02962963,-0.388888889,1,0,0,NextBu,0.879759452,31,0,31,0,1,611968b71a9490ef313a564f,Female,45,White,2022-07-29_13h16.26.744,FaceAttractiveness,2022.2.2,Win32,59.13660556,611968b71a9490ef313a564f,62e28ca91edcb69c59d3a196,62e3cf73d79b1b9a0afc488c,,,,,,,,
,,,,,114.0867,Extremely Unattractive,Extremely  Attractive,mirrored,CFD_AF_237_223_N.png,LCHEEK,1,63.14814815,1.399,-0.030555556,-0.396296296,1,0,0,NextBu,0.743036059,32,0,32,0,1,611968b71a9490ef313a564f,Female,45,White,2022-07-29_13h16.26.744,FaceAttractiveness,2022.2.2,Win32,59.13660556,611968b71a9490ef313a564f,62e28ca91edcb69c59d3a196,62e3cf73d79b1b9a0afc488c,,,,,,,,
,,,,,116.8261,Extremely Unattractive,Extremely  Attractive,mirrored,CFD_AF_231_357_N.png,RCHEEK,1,49.90740741,1.9412,-0.012962963,-0.407407407,1,0,0,NextBu,0.729510116,33,0,33,0,1,611968b71a9490ef313a564f,Female,45,White,2022-07-29_13h16.26.744,FaceAttractiveness,2022.2.2,Win32,59.13660556,611968b71a9490ef313a564f,62e28ca91edcb69c59d3a196,62e3cf73d79b1b9a0afc488c,,,,,,,,
,,,,,120.0917,Extremely Unattractive,Extremely  Attractive,mirrored,136_M_M_N_A.png,RCHEEK,1,36.48148148,1.3229,-0.015740741,-0.387037037,1,0,0,NextBu,0.951238211,34,0,34,0,1,611968b71a9490ef313a564f,Female,45,White,2022-07-29_13h16.26.744,FaceAttractiveness,2022.2.2,Win32,59.13660556,611968b71a9490ef313a564f,62e28ca91edcb69c59d3a196,62e3cf73d79b1b9a0afc488c,,,,,,,,
,,,,,122.9291,Extremely Unattractive,Extremely  Attractive,mirrored,087_M_M_N_A.png,LCHEEK,1,49.35185185,1.8545,0.000925926,-0.403703704,1,0,0,NextBu,0.795417906,35,0,35,0,1,611968b71a9490ef313a564f,Female,45,White,2022-07-29_13h16.26.744,FaceAttractiveness,2022.2.2,Win32,59.13660556,611968b71a9490ef313a564f,62e28ca91edcb69c59d3a196,62e3cf73d79b1b9a0afc488c,,,,,,,,
,,,,,126.3823,Extremely Unattractive,Extremely  Attractive,mirrored,035_M_F_N_A.png,RCHEEK,1,43.05555556,2.58,-0.024074074,-0.398148148,1,0,0,NextBu,0.767630874,36,0,36,0,1,611968b71a9490ef313a564f,Female,45,White,2022-07-29_13h16.26.744,FaceAttractiveness,2022.2.2,Win32,59.13660556,611968b71a9490ef313a564f,62e28ca91edcb69c59d3a196,62e3cf73d79b1b9a0afc488c,,,,,,,,
,,,,,130.1888,Extremely Unattractive,Extremely  Attractive,mirrored,006_M_F_N_A.png,RCHEEK,1,49.90740741,1.7682,0.002777778,-0.387037037,1,0,0,NextBu,0.69938281,37,0,37,0,1,611968b71a9490ef313a564f,Female,45,White,2022-07-29_13h16.26.744,FaceAttractiveness,2022.2.2,Win32,59.13660556,611968b71a9490ef313a564f,62e28ca91edcb69c59d3a196,62e3cf73d79b1b9a0afc488c,,,,,,,,
,,,,,133.1759,Extremely Unattractive,Extremely  Attractive,mirrored,CFD_WM_212_097_N.png,LIP,2,49.72222222,1.2846,0.015740741,-0.377777778,1,0,0,NextBu,0.988047009,38,0,38,0,1,611968b71a9490ef313a564f,Female,45,White,2022-07-29_13h16.26.744,FaceAttractiveness,2022.2.2,Win32,59.13660556,611968b71a9490ef313a564f,62e28ca91edcb69c59d3a196,62e3cf73d79b1b9a0afc488c,,,,,,,,
,,,,,136.0088,Extremely Unattractive,Extremely  Attractive,mirrored,CFD_WF_250_167_N.png,FOREHEAD,2,38.14814815,1.5808,0.021296296,-0.40462963,1,0,0,NextBu,0.822794809,39,0,39,0,1,611968b71a9490ef313a564f,Female,45,White,2022-07-29_13h16.26.744,FaceAttractiveness,2022.2.2,Win32,59.13660556,611968b71a9490ef313a564f,62e28ca91edcb69c59d3a196,62e3cf73d79b1b9a0afc488c,,,,,,,,
,,,,,138.9118,Extremely Unattractive,Extremely  Attractive,mirrored,CFD_WF_200_099_N.png,LCHEEK,2,49.81481481,1.5705,-0.005555556,-0.410185185,1,0,0,NextBu,0.552446859,40,0,40,0,1,611968b71a9490ef313a564f,Female,45,White,2022-07-29_13h16.26.744,FaceAttractiveness,2022.2.2,Win32,59.13660556,611968b71a9490ef313a564f,62e28ca91edcb69c59d3a196,62e3cf73d79b1b9a0afc488c,,,,,,,,
,,,,,141.4634,Extremely Unattractive,Extremely  Attractive,mirrored,CFD_WF_002_004_N.png,FOREHEAD,2,38.7037037,1.2544,-0.021296296,-0.408333333,1,0,0,NextBu,0.934651517,41,0,41,0,1,611968b71a9490ef313a564f,Female,45,White,2022-07-29_13h16.26.744,FaceAttractiveness,2022.2.2,Win32,59.13660556,611968b71a9490ef313a564f,62e28ca91edcb69c59d3a196,62e3cf73d79b1b9a0afc488c,,,,,,,,
,,,,,144.3332,Extremely Unattractive,Extremely  Attractive,mirrored,CFD_LM_203_026_N.png,FOREHEAD,2,37.77777778,1.4551,-0.032407407,-0.39537037,1,0,0,NextBu,0.58194017,42,0,42,0,1,611968b71a9490ef313a564f,Female,45,White,2022-07-29_13h16.26.744,FaceAttractiveness,2022.2.2,Win32,59.13660556,611968b71a9490ef313a564f,62e28ca91edcb69c59d3a196,62e3cf73d79b1b9a0afc488c,,,,,,,,
,,,,,146.8867,Extremely Unattractive,Extremely  Attractive,mirrored,CFD_LM_201_057_N.png,FOREHEAD,2,50.18518519,1.9717,-0.012962963,-0.375,1,0,0,NextBu,0.9656874,43,0,43,0,1,611968b71a9490ef313a564f,Female,45,White,2022-07-29_13h16.26.744,FaceAttractiveness,2022.2.2,Win32,59.13660556,611968b71a9490ef313a564f,62e28ca91edcb69c59d3a196,62e3cf73d79b1b9a0afc488c,,,,,,,,
,,,,,150.2903,Extremely Unattractive,Extremely  Attractive,mirrored,CFD_LF_224_176_N.png,FOREHEAD,2,58.42592593,1.6238,0.012962963,-0.385185185,1,0,0,NextBu,0.80683758,44,0,44,0,1,611968b71a9490ef313a564f,Female,45,White,2022-07-29_13h16.26.744,FaceAttractiveness,2022.2.2,Win32,59.13660556,611968b71a9490ef313a564f,62e28ca91edcb69c59d3a196,62e3cf73d79b1b9a0afc488c,,,,,,,,
,,,,,153.3093,Extremely Unattractive,Extremely  Attractive,mirrored,CFD_BM_234_172_N.png,LIP,2,57.59259259,2.8381,-0.002777778,-0.383333333,1,0,0,NextBu,0.736541984,45,0,45,0,1,611968b71a9490ef313a564f,Female,45,White,2022-07-29_13h16.26.744,FaceAttractiveness,2022.2.2,Win32,59.13660556,611968b71a9490ef313a564f,62e28ca91edcb69c59d3a196,62e3cf73d79b1b9a0afc488c,,,,,,,,
,,,,,157.5338,Extremely Unattractive,Extremely  Attractive,mirrored,CFD_BM_213_134_N.png,LIP,2,37.77777778,1.7838,0.037037037,-0.405555556,1,0,0,NextBu,0.731434737,46,0,46,0,1,611968b71a9490ef313a564f,Female,45,White,2022-07-29_13h16.26.744,FaceAttractiveness,2022.2.2,Win32,59.13660556,611968b71a9490ef313a564f,62e28ca91edcb69c59d3a196,62e3cf73d79b1b9a0afc488c,,,,,,,,
,,,,,160.9671,Extremely Unattractive,Extremely  Attractive,mirrored,CFD_BF_224_002_N.png,LCHEEK,2,38.24074074,1.749,0.05,-0.399074074,1,0,0,NextBu,0.660475335,47,0,47,0,1,611968b71a9490ef313a564f,Female,45,White,2022-07-29_13h16.26.744,FaceAttractiveness,2022.2.2,Win32,59.13660556,611968b71a9490ef313a564f,62e28ca91edcb69c59d3a196,62e3cf73d79b1b9a0afc488c,,,,,,,,
,,,,,163.8361,Extremely Unattractive,Extremely  Attractive,mirrored,CFD_BF_214_308_N.png,LIP,2,62.87037037,2.022,0.016666667,-0.396296296,1,0,0,NextBu,0.580287698,48,0,48,0,1,611968b71a9490ef313a564f,Female,45,White,2022-07-29_13h16.26.744,FaceAttractiveness,2022.2.2,Win32,59.13660556,611968b71a9490ef313a564f,62e28ca91edcb69c59d3a196,62e3cf73d79b1b9a0afc488c,,,,,,,,
,,,,,167.3266,Extremely Unattractive,Extremely  Attractive,mirrored,CFD_AM_233_236_N.png,LCHEEK,2,37.77777778,1.5515,0,-0.37962963,1,0,0,NextBu,0.597704845,49,0,49,0,1,611968b71a9490ef313a564f,Female,45,White,2022-07-29_13h16.26.744,FaceAttractiveness,2022.2.2,Win32,59.13660556,611968b71a9490ef313a564f,62e28ca91edcb69c59d3a196,62e3cf73d79b1b9a0afc488c,,,,,,,,
,,,,,169.9926,Extremely Unattractive,Extremely  Attractive,mirrored,CFD_AF_245_143_N.png,LCHEEK,2,62.59259259,2.0606,-0.024074074,-0.413888889,1,0,0,NextBu,0.575523808,50,0,50,0,1,611968b71a9490ef313a564f,Female,45,White,2022-07-29_13h16.26.744,FaceAttractiveness,2022.2.2,Win32,59.13660556,611968b71a9490ef313a564f,62e28ca91edcb69c59d3a196,62e3cf73d79b1b9a0afc488c,,,,,,,,
,,,,,173.4961,Extremely Unattractive,Extremely  Attractive,mirrored,CFD_AF_237_223_N.png,NASALTIP,2,61.11111111,1.8885,-0.002777778,-0.397222222,1,0,0,NextBu,0.500270669,51,0,51,0,1,611968b71a9490ef313a564f,Female,45,White,2022-07-29_13h16.26.744,FaceAttractiveness,2022.2.2,Win32,59.13660556,611968b71a9490ef313a564f,62e28ca91edcb69c59d3a196,62e3cf73d79b1b9a0afc488c,,,,,,,,
,,,,,176.6036,Extremely Unattractive,Extremely  Attractive,mirrored,CFD_AF_231_357_N.png,LCHEEK,2,49.53703704,3.5043,-0.012962963,-0.393518519,1,0,0,NextBu,0.595916992,52,0,52,0,1,611968b71a9490ef313a564f,Female,45,White,2022-07-29_13h16.26.744,FaceAttractiveness,2022.2.2,Win32,59.13660556,611968b71a9490ef313a564f,62e28ca91edcb69c59d3a196,62e3cf73d79b1b9a0afc488c,,,,,,,,
,,,,,181.3082,Extremely Unattractive,Extremely  Attractive,mirrored,136_M_M_N_A.png,LCHEEK,2,37.03703704,1.3696,0.010185185,-0.37962963,1,0,0,NextBu,0.786701241,53,0,53,0,1,611968b71a9490ef313a564f,Female,45,White,2022-07-29_13h16.26.744,FaceAttractiveness,2022.2.2,Win32,59.13660556,611968b71a9490ef313a564f,62e28ca91edcb69c59d3a196,62e3cf73d79b1b9a0afc488c,,,,,,,,
,,,,,183.9232,Extremely Unattractive,Extremely  Attractive,mirrored,087_M_M_N_A.png,RCHEEK,2,49.62962963,1.4614,-0.008333333,-0.391666667,1,0,0,NextBu,0.723134209,54,0,54,0,1,611968b71a9490ef313a564f,Female,45,White,2022-07-29_13h16.26.744,FaceAttractiveness,2022.2.2,Win32,59.13660556,611968b71a9490ef313a564f,62e28ca91edcb69c59d3a196,62e3cf73d79b1b9a0afc488c,,,,,,,,
,,,,,186.746,Extremely Unattractive,Extremely  Attractive,mirrored,035_M_F_N_A.png,LCHEEK,2,38.88888889,1.6511,0.035185185,-0.37962963,1,0,0,NextBu,0.88121576,55,0,55,0,1,611968b71a9490ef313a564f,Female,45,White,2022-07-29_13h16.26.744,FaceAttractiveness,2022.2.2,Win32,59.13660556,611968b71a9490ef313a564f,62e28ca91edcb69c59d3a196,62e3cf73d79b1b9a0afc488c,,,,,,,,
,,,,,190.0164,Extremely Unattractive,Extremely  Attractive,mirrored,006_M_F_N_A.png,LCHEEK,2,62.31481481,1.3555,-0.014814815,-0.416666667,1,0,0,NextBu,0.520950957,56,0,56,0,1,611968b71a9490ef313a564f,Female,45,White,2022-07-29_13h16.26.744,FaceAttractiveness,2022.2.2,Win32,59.13660556,611968b71a9490ef313a564f,62e28ca91edcb69c59d3a196,62e3cf73d79b1b9a0afc488c,,,,,,,,
,,,,,192.4814,Extremely Unattractive,Extremely  Attractive,mirrored,CFD_WM_212_097_N.png,RCHEEK,3,48.88888889,2.8678,-0.025925926,-0.383333333,1,0,0,NextBu,0.531355134,57,0,57,0,1,611968b71a9490ef313a564f,Female,45,White,2022-07-29_13h16.26.744,FaceAttractiveness,2022.2.2,Win32,59.13660556,611968b71a9490ef313a564f,62e28ca91edcb69c59d3a196,62e3cf73d79b1b9a0afc488c,,,,,,,,
,,,,,196.3188,Extremely Unattractive,Extremely  Attractive,mirrored,CFD_WF_250_167_N.png,RCHEEK,3,48.14814815,1.4817,-0.015740741,-0.394444444,1,0,0,NextBu,0.963631628,58,0,58,0,1,611968b71a9490ef313a564f,Female,45,White,2022-07-29_13h16.26.744,FaceAttractiveness,2022.2.2,Win32,59.13660556,611968b71a9490ef313a564f,62e28ca91edcb69c59d3a196,62e3cf73d79b1b9a0afc488c,,,,,,,,
,,,,,199.3215,Extremely Unattractive,Extremely  Attractive,mirrored,CFD_WF_200_099_N.png,NASALTIP,3,52.77777778,1.6548,-0.010185185,-0.386111111,1,0,0,NextBu,0.637368723,59,0,59,0,1,611968b71a9490ef313a564f,Female,45,White,2022-07-29_13h16.26.744,FaceAttractiveness,2022.2.2,Win32,59.13660556,611968b71a9490ef313a564f,62e28ca91edcb69c59d3a196,62e3cf73d79b1b9a0afc488c,,,,,,,,
,,,,,202.1242,Extremely Unattractive,Extremely  Attractive,mirrored,CFD_WF_002_004_N.png,NASALTIP,3,45.64814815,1.3381,-0.032407407,-0.387037037,1,0,0,NextBu,0.785683109,60,0,60,0,1,611968b71a9490ef313a564f,Female,45,White,2022-07-29_13h16.26.744,FaceAttractiveness,2022.2.2,Win32,59.13660556,611968b71a9490ef313a564f,62e28ca91edcb69c59d3a196,62e3cf73d79b1b9a0afc488c,,,,,,,,
,,,,,204.7773,Extremely Unattractive,Extremely  Attractive,mirrored,CFD_LM_203_026_N.png,LIP,3,38.14814815,1.3158,0.073148148,-0.396296296,1,0,0,NextBu,0.878544693,61,0,61,0,1,611968b71a9490ef313a564f,Female,45,White,2022-07-29_13h16.26.744,FaceAttractiveness,2022.2.2,Win32,59.13660556,611968b71a9490ef313a564f,62e28ca91edcb69c59d3a196,62e3cf73d79b1b9a0afc488c,,,,,,,,
,,,,,207.3793,Extremely Unattractive,Extremely  Attractive,mirrored,CFD_LM_201_057_N.png,LIP,3,50.09259259,1.468,-0.013888889,-0.385185185,1,0,0,NextBu,0.515676401,62,0,62,0,1,611968b71a9490ef313a564f,Female,45,White,2022-07-29_13h16.26.744,FaceAttractiveness,2022.2.2,Win32,59.13660556,611968b71a9490ef313a564f,62e28ca91edcb69c59d3a196,62e3cf73d79b1b9a0afc488c,,,,,,,,
,,,,,209.8155,Extremely Unattractive,Extremely  Attractive,mirrored,CFD_LF_224_176_N.png,LCHEEK,3,61.11111111,1.5868,-0.000925926,-0.402777778,1,0,0,NextBu,0.756382006,63,0,63,0,1,611968b71a9490ef313a564f,Female,45,White,2022-07-29_13h16.26.744,FaceAttractiveness,2022.2.2,Win32,59.13660556,611968b71a9490ef313a564f,62e28ca91edcb69c59d3a196,62e3cf73d79b1b9a0afc488c,,,,,,,,
,,,,,212.6851,Extremely Unattractive,Extremely  Attractive,mirrored,CFD_BM_234_172_N.png,NASALTIP,3,58.7962963,2.7816,-0.016666667,-0.402777778,1,0,0,NextBu,0.91417893,64,0,64,0,1,611968b71a9490ef313a564f,Female,45,White,2022-07-29_13h16.26.744,FaceAttractiveness,2022.2.2,Win32,59.13660556,611968b71a9490ef313a564f,62e28ca91edcb69c59d3a196,62e3cf73d79b1b9a0afc488c,,,,,,,,
,,,,,217.0273,Extremely Unattractive,Extremely  Attractive,mirrored,CFD_BM_213_134_N.png,FOREHEAD,3,38.51851852,1.5492,-0.019444444,-0.373148148,1,0,0,NextBu,0.607319378,65,0,65,0,1,611968b71a9490ef313a564f,Female,45,White,2022-07-29_13h16.26.744,FaceAttractiveness,2022.2.2,Win32,59.13660556,611968b71a9490ef313a564f,62e28ca91edcb69c59d3a196,62e3cf73d79b1b9a0afc488c,,,,,,,,
,,,,,219.6289,Extremely Unattractive,Extremely  Attractive,mirrored,CFD_BF_224_002_N.png,FOREHEAD,3,41.38888889,1.5217,-0.02037037,-0.394444444,1,0,0,NextBu,0.772672201,66,0,66,0,1,611968b71a9490ef313a564f,Female,45,White,2022-07-29_13h16.26.744,FaceAttractiveness,2022.2.2,Win32,59.13660556,611968b71a9490ef313a564f,62e28ca91edcb69c59d3a196,62e3cf73d79b1b9a0afc488c,,,,,,,,
,,,,,222.3941,Extremely Unattractive,Extremely  Attractive,mirrored,CFD_BF_214_308_N.png,LCHEEK,3,64.62962963,1.3887,-0.021296296,-0.392592593,1,0,0,NextBu,0.682376973,67,0,67,0,1,611968b71a9490ef313a564f,Female,45,White,2022-07-29_13h16.26.744,FaceAttractiveness,2022.2.2,Win32,59.13660556,611968b71a9490ef313a564f,62e28ca91edcb69c59d3a196,62e3cf73d79b1b9a0afc488c,,,,,,,,
,,,,,224.9975,Extremely Unattractive,Extremely  Attractive,mirrored,CFD_AM_233_236_N.png,LIP,3,37.12962963,1.529,-0.012037037,-0.378703704,1,0,0,NextBu,0.809152382,68,0,68,0,1,611968b71a9490ef313a564f,Female,45,White,2022-07-29_13h16.26.744,FaceAttractiveness,2022.2.2,Win32,59.13660556,611968b71a9490ef313a564f,62e28ca91edcb69c59d3a196,62e3cf73d79b1b9a0afc488c,,,,,,,,
,,,,,227.8161,Extremely Unattractive,Extremely  Attractive,mirrored,CFD_AF_245_143_N.png,LIP,3,62.87037037,1.5721,-0.005555556,-0.409259259,1,0,0,NextBu,0.838675286,69,0,69,0,1,611968b71a9490ef313a564f,Female,45,White,2022-07-29_13h16.26.744,FaceAttractiveness,2022.2.2,Win32,59.13660556,611968b71a9490ef313a564f,62e28ca91edcb69c59d3a196,62e3cf73d79b1b9a0afc488c,,,,,,,,
,,,,,230.873,Extremely Unattractive,Extremely  Attractive,mirrored,CFD_AF_237_223_N.png,RCHEEK,3,62.31481481,1.6677,-0.036111111,-0.414814815,1,0,0,NextBu,0.51236142,70,0,70,0,1,611968b71a9490ef313a564f,Female,45,White,2022-07-29_13h16.26.744,FaceAttractiveness,2022.2.2,Win32,59.13660556,611968b71a9490ef313a564f,62e28ca91edcb69c59d3a196,62e3cf73d79b1b9a0afc488c,,,,,,,,
,,,,,233.8059,Extremely Unattractive,Extremely  Attractive,mirrored,CFD_AF_231_357_N.png,LIP,3,47.77777778,1.8976,0.000925926,-0.366666667,1,0,0,NextBu,0.993791422,71,0,71,0,1,611968b71a9490ef313a564f,Female,45,White,2022-07-29_13h16.26.744,FaceAttractiveness,2022.2.2,Win32,59.13660556,611968b71a9490ef313a564f,62e28ca91edcb69c59d3a196,62e3cf73d79b1b9a0afc488c,,,,,,,,
,,,,,237.1931,Extremely Unattractive,Extremely  Attractive,mirrored,136_M_M_N_A.png,NASALTIP,3,37.31481481,1.3707,0.028703704,-0.388888889,1,0,0,NextBu,0.825156114,72,0,72,0,1,611968b71a9490ef313a564f,Female,45,White,2022-07-29_13h16.26.744,FaceAttractiveness,2022.2.2,Win32,59.13660556,611968b71a9490ef313a564f,62e28ca91edcb69c59d3a196,62e3cf73d79b1b9a0afc488c,,,,,,,,
,,,,,239.862,Extremely Unattractive,Extremely  Attractive,mirrored,087_M_M_N_A.png,FOREHEAD,3,49.72222222,1.9996,0.007407407,-0.37962963,1,0,0,NextBu,0.555514531,73,0,73,0,1,611968b71a9490ef313a564f,Female,45,White,2022-07-29_13h16.26.744,FaceAttractiveness,2022.2.2,Win32,59.13660556,611968b71a9490ef313a564f,62e28ca91edcb69c59d3a196,62e3cf73d79b1b9a0afc488c,,,,,,,,
,,,,,243.0823,Extremely Unattractive,Extremely  Attractive,mirrored,035_M_F_N_A.png,LIP,3,42.77777778,1.2206,-0.002777778,-0.374074074,1,0,0,NextBu,0.622241468,74,0,74,0,1,611968b71a9490ef313a564f,Female,45,White,2022-07-29_13h16.26.744,FaceAttractiveness,2022.2.2,Win32,59.13660556,611968b71a9490ef313a564f,62e28ca91edcb69c59d3a196,62e3cf73d79b1b9a0afc488c,,,,,,,,
,,,,,245.334,Extremely Unattractive,Extremely  Attractive,mirrored,006_M_F_N_A.png,LIP,3,62.87037037,1.554,0.02037037,-0.403703704,1,0,0,NextBu,0.763475814,75,0,75,0,1,611968b71a9490ef313a564f,Female,45,White,2022-07-29_13h16.26.744,FaceAttractiveness,2022.2.2,Win32,59.13660556,611968b71a9490ef313a564f,62e28ca91edcb69c59d3a196,62e3cf73d79b1b9a0afc488c,,,,,,,,
,,,,,248.304,Extremely Unattractive,Extremely  Attractive,mirrored,CFD_WM_212_097_N.png,LCHEEK,4,46.01851852,1.5432,0.040740741,-0.389814815,1,0,0,NextBu,0.782812009,76,0,76,0,1,611968b71a9490ef313a564f,Female,45,White,2022-07-29_13h16.26.744,FaceAttractiveness,2022.2.2,Win32,59.13660556,611968b71a9490ef313a564f,62e28ca91edcb69c59d3a196,62e3cf73d79b1b9a0afc488c,,,,,,,,
,,,,,251.14,Extremely Unattractive,Extremely  Attractive,mirrored,CFD_WF_250_167_N.png,NASALTIP,4,46.38888889,1.7964,0.015740741,-0.392592593,1,0,0,NextBu,0.557065489,77,0,77,0,1,611968b71a9490ef313a564f,Female,45,White,2022-07-29_13h16.26.744,FaceAttractiveness,2022.2.2,Win32,59.13660556,611968b71a9490ef313a564f,62e28ca91edcb69c59d3a196,62e3cf73d79b1b9a0afc488c,,,,,,,,
,,,,,253.8928,Extremely Unattractive,Extremely  Attractive,mirrored,CFD_WF_200_099_N.png,FOREHEAD,4,58.05555556,1.4203,0.033333333,-0.364814815,1,0,0,NextBu,0.743658897,78,0,78,0,1,611968b71a9490ef313a564f,Female,45,White,2022-07-29_13h16.26.744,FaceAttractiveness,2022.2.2,Win32,59.13660556,611968b71a9490ef313a564f,62e28ca91edcb69c59d3a196,62e3cf73d79b1b9a0afc488c,,,,,,,,
,,,,,256.5452,Extremely Unattractive,Extremely  Attractive,mirrored,CFD_WF_002_004_N.png,LCHEEK,4,40.74074074,1.1375,0.003703704,-0.387037037,1,0,0,NextBu,0.994732834,79,0,79,0,1,611968b71a9490ef313a564f,Female,45,White,2022-07-29_13h16.26.744,FaceAttractiveness,2022.2.2,Win32,59.13660556,611968b71a9490ef313a564f,62e28ca91edcb69c59d3a196,62e3cf73d79b1b9a0afc488c,,,,,,,,
,,,,,259.0482,Extremely Unattractive,Extremely  Attractive,mirrored,CFD_LM_203_026_N.png,RCHEEK,4,37.31481481,1.1701,0.035185185,-0.393518519,1,0,0,NextBu,0.754308046,80,0,80,0,1,611968b71a9490ef313a564f,Female,45,White,2022-07-29_13h16.26.744,FaceAttractiveness,2022.2.2,Win32,59.13660556,611968b71a9490ef313a564f,62e28ca91edcb69c59d3a196,62e3cf73d79b1b9a0afc488c,,,,,,,,
,,,,,261.4668,Extremely Unattractive,Extremely  Attractive,mirrored,CFD_LM_201_057_N.png,RCHEEK,4,51.57407407,1.5051,0.025,-0.390740741,1,0,0,NextBu,0.894272728,81,0,81,0,1,611968b71a9490ef313a564f,Female,45,White,2022-07-29_13h16.26.744,FaceAttractiveness,2022.2.2,Win32,59.13660556,611968b71a9490ef313a564f,62e28ca91edcb69c59d3a196,62e3cf73d79b1b9a0afc488c,,,,,,,,
,,,,,264.2407,Extremely Unattractive,Extremely  Attractive,mirrored,CFD_LF_224_176_N.png,RCHEEK,4,58.61111111,1.4096,-0.007407407,-0.410185185,1,0,0,NextBu,0.810026278,82,0,82,0,1,611968b71a9490ef313a564f,Female,45,White,2022-07-29_13h16.26.744,FaceAttractiveness,2022.2.2,Win32,59.13660556,611968b71a9490ef313a564f,62e28ca91edcb69c59d3a196,62e3cf73d79b1b9a0afc488c,,,,,,,,
,,,,,266.9893,Extremely Unattractive,Extremely  Attractive,mirrored,CFD_BM_234_172_N.png,RCHEEK,4,55.37037037,1.2804,0.026851852,-0.369444444,1,0,0,NextBu,0.984328248,83,0,83,0,1,611968b71a9490ef313a564f,Female,45,White,2022-07-29_13h16.26.744,FaceAttractiveness,2022.2.2,Win32,59.13660556,611968b71a9490ef313a564f,62e28ca91edcb69c59d3a196,62e3cf73d79b1b9a0afc488c,,,,,,,,
,,,,,269.6584,Extremely Unattractive,Extremely  Attractive,mirrored,CFD_BM_213_134_N.png,LCHEEK,4,38.98148148,1.2209,0.02037037,-0.396296296,1,0,0,NextBu,0.880725543,84,0,84,0,1,611968b71a9490ef313a564f,Female,45,White,2022-07-29_13h16.26.744,FaceAttractiveness,2022.2.2,Win32,59.13660556,611968b71a9490ef313a564f,62e28ca91edcb69c59d3a196,62e3cf73d79b1b9a0afc488c,,,,,,,,
,,,,,272.1107,Extremely Unattractive,Extremely  Attractive,mirrored,CFD_BF_224_002_N.png,RCHEEK,4,46.57407407,1.784,0.025925926,-0.407407407,1,0,0,NextBu,0.529933049,85,0,85,0,1,611968b71a9490ef313a564f,Female,45,White,2022-07-29_13h16.26.744,FaceAttractiveness,2022.2.2,Win32,59.13660556,611968b71a9490ef313a564f,62e28ca91edcb69c59d3a196,62e3cf73d79b1b9a0afc488c,,,,,,,,
,,,,,274.9336,Extremely Unattractive,Extremely  Attractive,mirrored,CFD_BF_214_308_N.png,FOREHEAD,4,64.72222222,1.9376,-0.000925926,-0.378703704,1,0,0,NextBu,0.622781214,86,0,86,0,1,611968b71a9490ef313a564f,Female,45,White,2022-07-29_13h16.26.744,FaceAttractiveness,2022.2.2,Win32,59.13660556,611968b71a9490ef313a564f,62e28ca91edcb69c59d3a196,62e3cf73d79b1b9a0afc488c,,,,,,,,
,,,,,277.9666,Extremely Unattractive,Extremely  Attractive,mirrored,CFD_AM_233_236_N.png,FOREHEAD,4,38.05555556,1.1545,-0.009259259,-0.393518519,1,0,0,NextBu,0.735934573,87,0,87,0,1,611968b71a9490ef313a564f,Female,45,White,2022-07-29_13h16.26.744,FaceAttractiveness,2022.2.2,Win32,59.13660556,611968b71a9490ef313a564f,62e28ca91edcb69c59d3a196,62e3cf73d79b1b9a0afc488c,,,,,,,,
,,,,,280.3688,Extremely Unattractive,Extremely  Attractive,mirrored,CFD_AF_245_143_N.png,FOREHEAD,4,62.96296296,1.9782,0.028703704,-0.403703704,1,0,0,NextBu,0.716681013,88,0,88,0,1,611968b71a9490ef313a564f,Female,45,White,2022-07-29_13h16.26.744,FaceAttractiveness,2022.2.2,Win32,59.13660556,611968b71a9490ef313a564f,62e28ca91edcb69c59d3a196,62e3cf73d79b1b9a0afc488c,,,,,,,,
,,,,,283.6418,Extremely Unattractive,Extremely  Attractive,mirrored,CFD_AF_237_223_N.png,FOREHEAD,4,61.2962963,1.9044,-0.040740741,-0.412962963,1,0,0,NextBu,0.925066579,89,0,89,0,1,611968b71a9490ef313a564f,Female,45,White,2022-07-29_13h16.26.744,FaceAttractiveness,2022.2.2,Win32,59.13660556,611968b71a9490ef313a564f,62e28ca91edcb69c59d3a196,62e3cf73d79b1b9a0afc488c,,,,,,,,
,,,,,286.9751,Extremely Unattractive,Extremely  Attractive,mirrored,CFD_AF_231_357_N.png,NASALTIP,4,52.5,2.7344,0.018518519,-0.373148148,1,0,0,NextBu,0.836565501,90,0,90,0,1,611968b71a9490ef313a564f,Female,45,White,2022-07-29_13h16.26.744,FaceAttractiveness,2022.2.2,Win32,59.13660556,611968b71a9490ef313a564f,62e28ca91edcb69c59d3a196,62e3cf73d79b1b9a0afc488c,,,,,,,,
,,,,,291.0466,Extremely Unattractive,Extremely  Attractive,mirrored,136_M_M_N_A.png,LIP,4,43.14814815,1.4622,0.015740741,-0.358333333,1,0,0,NextBu,0.785455937,91,0,91,0,1,611968b71a9490ef313a564f,Female,45,White,2022-07-29_13h16.26.744,FaceAttractiveness,2022.2.2,Win32,59.13660556,611968b71a9490ef313a564f,62e28ca91edcb69c59d3a196,62e3cf73d79b1b9a0afc488c,,,,,,,,
,,,,,293.7489,Extremely Unattractive,Extremely  Attractive,mirrored,087_M_M_N_A.png,NASALTIP,4,50,1.5466,0.039814815,-0.409259259,1,0,0,NextBu,0.836240266,92,0,92,0,1,611968b71a9490ef313a564f,Female,45,White,2022-07-29_13h16.26.744,FaceAttractiveness,2022.2.2,Win32,59.13660556,611968b71a9490ef313a564f,62e28ca91edcb69c59d3a196,62e3cf73d79b1b9a0afc488c,,,,,,,,
,,,,,296.5717,Extremely Unattractive,Extremely  Attractive,mirrored,035_M_F_N_A.png,FOREHEAD,4,42.31481481,1.368,0.016666667,-0.387037037,1,0,0,NextBu,0.796996453,93,0,93,0,1,611968b71a9490ef313a564f,Female,45,White,2022-07-29_13h16.26.744,FaceAttractiveness,2022.2.2,Win32,59.13660556,611968b71a9490ef313a564f,62e28ca91edcb69c59d3a196,62e3cf73d79b1b9a0afc488c,,,,,,,,
,,,,,299.1374,Extremely Unattractive,Extremely  Attractive,mirrored,006_M_F_N_A.png,FOREHEAD,4,63.33333333,1.3583,0.046296296,-0.42037037,1,0,0,NextBu,0.673630203,94,0,94,0,1,611968b71a9490ef313a564f,Female,45,White,2022-07-29_13h16.26.744,FaceAttractiveness,2022.2.2,Win32,59.13660556,611968b71a9490ef313a564f,62e28ca91edcb69c59d3a196,62e3cf73d79b1b9a0afc488c,,,,,,,,
,,,,,,,,,,,,,,,,,,,,,,,,,,611968b71a9490ef313a564f,Female,45,White,2022-07-29_13h16.26.744,FaceAttractiveness,2022.2.2,Win32,59.13660556,611968b71a9490ef313a564f,62e28ca91edcb69c59d3a196,62e3cf73d79b1b9a0afc488c,0,0,0,0,1,Attractiveness,Extremely  Attractive,Extremely Unattractive
,,,,,,,,,,,,,,,,,,,,,,,,,,611968b71a9490ef313a564f,Female,45,White,2022-07-29_13h16.26.744,FaceAttractiveness,2022.2.2,Win32,59.13660556,611968b71a9490ef313a564f,62e28ca91edcb69c59d3a196,62e3cf73d79b1b9a0afc488c,,,,,,,,
