mouse.x,mouse.y,mouse.leftButton,mouse.midButton,mouse.rightButton,onsetTime,leftText,rightText,sliderDirection,face,lesion,block,slider.response,slider.rt,mouse_5.x,mouse_5.y,mouse_5.leftButton,mouse_5.midButton,mouse_5.rightButton,mouse_5.clicked_name,ITI,originalFaceTrials.thisRepN,originalFaceTrials.thisTrialN,originalFaceTrials.thisN,originalFaceTrials.thisIndex,originalFaceTrials.ran,Name,Gender,Age,Ethnicity,date,expName,psychopyVersion,OS,frameRate,RatingBlockOrder.thisRepN,RatingBlockOrder.thisTrialN,RatingBlockOrder.thisN,RatingBlockOrder.thisIndex,RatingBlockOrder.ran,Task,LeftLabel,RightLabel
0.1484375,-0.028645833,1,0,0,3.081,Extremely Unattractive,Extremely  Attractive,mirrored,CFD_WM_212_097_N.png,LCHEEK,0,57.68229167,6.0377,0.03125,-0.41015625,1,0,0,NextBu,0.806421718,0,0,0,0,1,614dc631d748ca720a4b4cce,female,36,african,2022-07-29_14h45.45.412,FaceAttractiveness,2022.2.2,Win32,59.85873339,,,,,,,,
,,,,,12.0486,Extremely Unattractive,Extremely  Attractive,mirrored,CFD_WF_250_167_N.png,LIP,0,24.86979167,5.0173,0.005208333,-0.408854167,1,0,0,NextBu,0.828534241,1,0,1,0,1,614dc631d748ca720a4b4cce,female,36,african,2022-07-29_14h45.45.412,FaceAttractiveness,2022.2.2,Win32,59.85873339,,,,,,,,
,,,,,19.051,Extremely Unattractive,Extremely  Attractive,mirrored,CFD_WF_200_099_N.png,NASALTIP,0,74.34895833,3.0992,0.010416667,-0.37890625,1,0,0,NextBu,0.640753,2,0,2,0,1,614dc631d748ca720a4b4cce,female,36,african,2022-07-29_14h45.45.412,FaceAttractiveness,2022.2.2,Win32,59.85873339,,,,,,,,
,,,,,23.94,Extremely Unattractive,Extremely  Attractive,mirrored,CFD_WF_002_004_N.png,LCHEEK,0,60.41666667,6.3715,0.041666667,-0.411458333,1,0,0,NextBu,0.997642524,3,0,3,0,1,614dc631d748ca720a4b4cce,female,36,african,2022-07-29_14h45.45.412,FaceAttractiveness,2022.2.2,Win32,59.85873339,,,,,,,,
,,,,,33.1513,Extremely Unattractive,Extremely  Attractive,mirrored,CFD_LM_203_026_N.png,FOREHEAD,0,58.59375,4.2073,0.069010417,-0.38671875,1,0,0,NextBu,0.932390119,4,0,4,0,1,614dc631d748ca720a4b4cce,female,36,african,2022-07-29_14h45.45.412,FaceAttractiveness,2022.2.2,Win32,59.85873339,,,,,,,,
,,,,,39.1018,Extremely Unattractive,Extremely  Attractive,mirrored,CFD_LM_201_057_N.png,LIP,0,74.86979167,3.3336,0.016927083,-0.397135417,1,0,0,NextBu,0.71820535,5,0,5,0,1,614dc631d748ca720a4b4cce,female,36,african,2022-07-29_14h45.45.412,FaceAttractiveness,2022.2.2,Win32,59.85873339,,,,,,,,
,,,,,44.1613,Extremely Unattractive,Extremely  Attractive,mirrored,CFD_LF_224_176_N.png,LIP,0,75.390625,2.2125,0.044270833,-0.375,1,0,0,NextBu,0.859164835,6,0,6,0,1,614dc631d748ca720a4b4cce,female,36,african,2022-07-29_14h45.45.412,FaceAttractiveness,2022.2.2,Win32,59.85873339,,,,,,,,
,,,,,48.2037,Extremely Unattractive,Extremely  Attractive,mirrored,CFD_BM_234_172_N.png,FOREHEAD,0,67.44791667,4.2391,0.036458333,-0.389322917,1,0,0,NextBu,0.870747173,7,0,7,0,1,614dc631d748ca720a4b4cce,female,36,african,2022-07-29_14h45.45.412,FaceAttractiveness,2022.2.2,Win32,59.85873339,,,,,,,,
,,,,,54.1801,Extremely Unattractive,Extremely  Attractive,mirrored,CFD_BM_213_134_N.png,FOREHEAD,0,58.203125,2.8566,0.005208333,-0.395833333,1,0,0,NextBu,0.883021105,8,0,8,0,1,614dc631d748ca720a4b4cce,female,36,african,2022-07-29_14h45.45.412,FaceAttractiveness,2022.2.2,Win32,59.85873339,,,,,,,,
,,,,,58.8733,Extremely Unattractive,Extremely  Attractive,mirrored,CFD_BF_224_002_N.png,RCHEEK,0,62.36979167,2.7859,0.045572917,-0.376302083,1,0,0,NextBu,0.779509125,9,0,9,0,1,614dc631d748ca720a4b4cce,female,36,african,2022-07-29_14h45.45.412,FaceAttractiveness,2022.2.2,Win32,59.85873339,,,,,,,,
,,,,,63.7414,Extremely Unattractive,Extremely  Attractive,mirrored,CFD_BF_214_308_N.png,RCHEEK,0,58.203125,4.1944,0.061197917,-0.38671875,1,0,0,NextBu,0.97455935,10,0,10,0,1,614dc631d748ca720a4b4cce,female,36,african,2022-07-29_14h45.45.412,FaceAttractiveness,2022.2.2,Win32,59.85873339,,,,,,,,
,,,,,69.8138,Extremely Unattractive,Extremely  Attractive,mirrored,CFD_AM_233_236_N.png,FOREHEAD,0,66.796875,20.8558,0.071614583,-0.397135417,1,0,0,NextBu,0.657467793,11,0,11,0,1,614dc631d748ca720a4b4cce,female,36,african,2022-07-29_14h45.45.412,FaceAttractiveness,2022.2.2,Win32,59.85873339,,,,,,,,
,,,,,92.2307,Extremely Unattractive,Extremely  Attractive,mirrored,CFD_AF_245_143_N.png,LIP,0,69.66145833,3.8882,0.041666667,-0.38671875,1,0,0,NextBu,0.927204995,12,0,12,0,1,614dc631d748ca720a4b4cce,female,36,african,2022-07-29_14h45.45.412,FaceAttractiveness,2022.2.2,Win32,59.85873339,,,,,,,,
,,,,,98.4835,Extremely Unattractive,Extremely  Attractive,mirrored,CFD_AF_237_223_N.png,FOREHEAD,0,75.26041667,4.0802,0.048177083,-0.3671875,1,0,0,NextBu,0.531670249,13,0,13,0,1,614dc631d748ca720a4b4cce,female,36,african,2022-07-29_14h45.45.412,FaceAttractiveness,2022.2.2,Win32,59.85873339,,,,,,,,
,,,,,104.1979,Extremely Unattractive,Extremely  Attractive,mirrored,CFD_AF_231_357_N.png,LIP,0,65.234375,2.8036,0.036458333,-0.380208333,1,0,0,NextBu,0.540539734,14,0,14,0,1,614dc631d748ca720a4b4cce,female,36,african,2022-07-29_14h45.45.412,FaceAttractiveness,2022.2.2,Win32,59.85873339,,,,,,,,
,,,,,108.5472,Extremely Unattractive,Extremely  Attractive,mirrored,136_M_M_N_A.png,FOREHEAD,0,57.03125,3.117,-0.020833333,-0.415364583,1,0,0,NextBu,0.80684588,15,0,15,0,1,614dc631d748ca720a4b4cce,female,36,african,2022-07-29_14h45.45.412,FaceAttractiveness,2022.2.2,Win32,59.85873339,,,,,,,,
,,,,,113.3472,Extremely Unattractive,Extremely  Attractive,mirrored,087_M_M_N_A.png,LCHEEK,0,74.73958333,2.2337,0.01953125,-0.389322917,1,0,0,NextBu,0.539620794,16,0,16,0,1,614dc631d748ca720a4b4cce,female,36,african,2022-07-29_14h45.45.412,FaceAttractiveness,2022.2.2,Win32,59.85873339,,,,,,,,
,,,,,116.9473,Extremely Unattractive,Extremely  Attractive,mirrored,035_M_F_N_A.png,LCHEEK,0,63.93229167,2.298,0.03125,-0.39453125,1,0,0,NextBu,0.906492135,17,0,17,0,1,614dc631d748ca720a4b4cce,female,36,african,2022-07-29_14h45.45.412,FaceAttractiveness,2022.2.2,Win32,59.85873339,,,,,,,,
,,,,,120.8973,Extremely Unattractive,Extremely  Attractive,mirrored,006_M_F_N_A.png,NASALTIP,0,64.19270833,3.0176,0.079427083,-0.365885417,1,0,0,NextBu,0.828769769,18,0,18,0,1,614dc631d748ca720a4b4cce,female,36,african,2022-07-29_14h45.45.412,FaceAttractiveness,2022.2.2,Win32,59.85873339,,,,,,,,
,,,,,125.5973,Extremely Unattractive,Extremely  Attractive,mirrored,CFD_WM_212_097_N.png,RCHEEK,1,64.19270833,2.9825,0.05859375,-0.388020833,1,0,0,NextBu,0.707809691,19,0,19,0,1,614dc631d748ca720a4b4cce,female,36,african,2022-07-29_14h45.45.412,FaceAttractiveness,2022.2.2,Win32,59.85873339,,,,,,,,
,,,,,129.9972,Extremely Unattractive,Extremely  Attractive,mirrored,CFD_WF_250_167_N.png,LCHEEK,1,49.08854167,4.2212,0.018229167,-0.385416667,1,0,0,NextBu,0.902751389,20,0,20,0,1,614dc631d748ca720a4b4cce,female,36,african,2022-07-29_14h45.45.412,FaceAttractiveness,2022.2.2,Win32,59.85873339,,,,,,,,
,,,,,136.3473,Extremely Unattractive,Extremely  Attractive,mirrored,CFD_WF_200_099_N.png,RCHEEK,1,62.76041667,2.1848,0.084635417,-0.393229167,1,0,0,NextBu,0.651974673,21,0,21,0,1,614dc631d748ca720a4b4cce,female,36,african,2022-07-29_14h45.45.412,FaceAttractiveness,2022.2.2,Win32,59.85873339,,,,,,,,
,,,,,139.9808,Extremely Unattractive,Extremely  Attractive,mirrored,CFD_WF_002_004_N.png,LIP,1,56.640625,3.5896,0.028645833,-0.373697917,1,0,0,NextBu,0.887829916,22,0,22,0,1,614dc631d748ca720a4b4cce,female,36,african,2022-07-29_14h45.45.412,FaceAttractiveness,2022.2.2,Win32,59.85873339,,,,,,,,
,,,,,145.1812,Extremely Unattractive,Extremely  Attractive,mirrored,CFD_LM_203_026_N.png,RCHEEK,1,61.19791667,2.914,0.063802083,-0.361979167,1,0,0,NextBu,0.944578314,23,0,23,0,1,614dc631d748ca720a4b4cce,female,36,african,2022-07-29_14h45.45.412,FaceAttractiveness,2022.2.2,Win32,59.85873339,,,,,,,,
,,,,,149.8973,Extremely Unattractive,Extremely  Attractive,mirrored,CFD_LM_201_057_N.png,NASALTIP,1,75,2.2982,0.053385417,-0.38671875,1,0,0,NextBu,0.921311316,24,0,24,0,1,614dc631d748ca720a4b4cce,female,36,african,2022-07-29_14h45.45.412,FaceAttractiveness,2022.2.2,Win32,59.85873339,,,,,,,,
,,,,,153.8974,Extremely Unattractive,Extremely  Attractive,mirrored,CFD_LF_224_176_N.png,NASALTIP,1,74.609375,2.0501,-0.0078125,-0.41015625,1,0,0,NextBu,0.665922664,25,0,25,0,1,614dc631d748ca720a4b4cce,female,36,african,2022-07-29_14h45.45.412,FaceAttractiveness,2022.2.2,Win32,59.85873339,,,,,,,,
,,,,,157.3973,Extremely Unattractive,Extremely  Attractive,mirrored,CFD_BM_234_172_N.png,LIP,1,64.19270833,2.3333,0.01953125,-0.404947917,1,0,0,NextBu,0.898080306,26,0,26,0,1,614dc631d748ca720a4b4cce,female,36,african,2022-07-29_14h45.45.412,FaceAttractiveness,2022.2.2,Win32,59.85873339,,,,,,,,
,,,,,161.4639,Extremely Unattractive,Extremely  Attractive,mirrored,CFD_BM_213_134_N.png,LIP,1,61.71875,1.7816,0.041666667,-0.377604167,1,0,0,NextBu,0.505345143,27,0,27,0,1,614dc631d748ca720a4b4cce,female,36,african,2022-07-29_14h45.45.412,FaceAttractiveness,2022.2.2,Win32,59.85873339,,,,,,,,
,,,,,164.6649,Extremely Unattractive,Extremely  Attractive,mirrored,CFD_BF_224_002_N.png,LIP,1,61.45833333,1.8806,0.009114583,-0.3984375,1,0,0,NextBu,0.616310534,28,0,28,0,1,614dc631d748ca720a4b4cce,female,36,african,2022-07-29_14h45.45.412,FaceAttractiveness,2022.2.2,Win32,59.85873339,,,,,,,,
,,,,,167.8807,Extremely Unattractive,Extremely  Attractive,mirrored,CFD_BF_214_308_N.png,LIP,1,67.05729167,3.6213,0.03515625,-0.376302083,1,0,0,NextBu,0.876207767,29,0,29,0,1,614dc631d748ca720a4b4cce,female,36,african,2022-07-29_14h45.45.412,FaceAttractiveness,2022.2.2,Win32,59.85873339,,,,,,,,
,,,,,173.1641,Extremely Unattractive,Extremely  Attractive,mirrored,CFD_AM_233_236_N.png,NASALTIP,1,61.84895833,1.8826,0.059895833,-0.3671875,1,0,0,NextBu,0.856083053,30,0,30,0,1,614dc631d748ca720a4b4cce,female,36,african,2022-07-29_14h45.45.412,FaceAttractiveness,2022.2.2,Win32,59.85873339,,,,,,,,
,,,,,176.7141,Extremely Unattractive,Extremely  Attractive,mirrored,CFD_AF_245_143_N.png,LCHEEK,1,75.26041667,2.2983,0.0390625,-0.389322917,1,0,0,NextBu,0.529967038,31,0,31,0,1,614dc631d748ca720a4b4cce,female,36,african,2022-07-29_14h45.45.412,FaceAttractiveness,2022.2.2,Win32,59.85873339,,,,,,,,
,,,,,180.5145,Extremely Unattractive,Extremely  Attractive,mirrored,CFD_AF_237_223_N.png,LCHEEK,1,74.21875,2.5161,0.01171875,-0.411458333,1,0,0,NextBu,0.712671866,32,0,32,0,1,614dc631d748ca720a4b4cce,female,36,african,2022-07-29_14h45.45.412,FaceAttractiveness,2022.2.2,Win32,59.85873339,,,,,,,,
,,,,,184.5307,Extremely Unattractive,Extremely  Attractive,mirrored,CFD_AF_231_357_N.png,NASALTIP,1,62.63020833,3.3649,0.036458333,-0.399739583,1,0,0,NextBu,0.968483004,33,0,33,0,1,614dc631d748ca720a4b4cce,female,36,african,2022-07-29_14h45.45.412,FaceAttractiveness,2022.2.2,Win32,59.85873339,,,,,,,,
,,,,,189.7308,Extremely Unattractive,Extremely  Attractive,mirrored,136_M_M_N_A.png,LIP,1,61.328125,2.4662,0.032552083,-0.389322917,1,0,0,NextBu,0.758429469,34,0,34,0,1,614dc631d748ca720a4b4cce,female,36,african,2022-07-29_14h45.45.412,FaceAttractiveness,2022.2.2,Win32,59.85873339,,,,,,,,
,,,,,194.031,Extremely Unattractive,Extremely  Attractive,mirrored,087_M_M_N_A.png,FOREHEAD,1,74.73958333,2.3347,0.053385417,-0.37890625,1,0,0,NextBu,0.754592592,35,0,35,0,1,614dc631d748ca720a4b4cce,female,36,african,2022-07-29_14h45.45.412,FaceAttractiveness,2022.2.2,Win32,59.85873339,,,,,,,,
,,,,,197.9483,Extremely Unattractive,Extremely  Attractive,mirrored,035_M_F_N_A.png,NASALTIP,1,62.23958333,2.116,0.0625,-0.372395833,1,0,0,NextBu,0.540553872,36,0,36,0,1,614dc631d748ca720a4b4cce,female,36,african,2022-07-29_14h45.45.412,FaceAttractiveness,2022.2.2,Win32,59.85873339,,,,,,,,
,,,,,201.4149,Extremely Unattractive,Extremely  Attractive,mirrored,006_M_F_N_A.png,RCHEEK,1,64.453125,1.6811,0.069010417,-0.389322917,1,0,0,NextBu,0.674602795,37,0,37,0,1,614dc631d748ca720a4b4cce,female,36,african,2022-07-29_14h45.45.412,FaceAttractiveness,2022.2.2,Win32,59.85873339,,,,,,,,
,,,,,204.7476,Extremely Unattractive,Extremely  Attractive,mirrored,CFD_WM_212_097_N.png,LIP,2,57.94270833,3.3483,0.036458333,-0.381510417,1,0,0,NextBu,0.746951234,38,0,38,0,1,614dc631d748ca720a4b4cce,female,36,african,2022-07-29_14h45.45.412,FaceAttractiveness,2022.2.2,Win32,59.85873339,,,,,,,,
,,,,,210.0977,Extremely Unattractive,Extremely  Attractive,mirrored,CFD_WF_250_167_N.png,FOREHEAD,2,59.11458333,3.8353,0.02734375,-0.3671875,1,0,0,NextBu,0.963619875,39,0,39,0,1,614dc631d748ca720a4b4cce,female,36,african,2022-07-29_14h45.45.412,FaceAttractiveness,2022.2.2,Win32,59.85873339,,,,,,,,
,,,,,215.6975,Extremely Unattractive,Extremely  Attractive,mirrored,CFD_WF_200_099_N.png,FOREHEAD,2,74.73958333,3.183,0.083333333,-0.39453125,1,0,0,NextBu,0.694032904,40,0,40,0,1,614dc631d748ca720a4b4cce,female,36,african,2022-07-29_14h45.45.412,FaceAttractiveness,2022.2.2,Win32,59.85873339,,,,,,,,
,,,,,220.7809,Extremely Unattractive,Extremely  Attractive,mirrored,CFD_WF_002_004_N.png,NASALTIP,2,49.08854167,4.1369,-0.01171875,-0.411458333,1,0,0,NextBu,0.766048969,41,0,41,0,1,614dc631d748ca720a4b4cce,female,36,african,2022-07-29_14h45.45.412,FaceAttractiveness,2022.2.2,Win32,59.85873339,,,,,,,,
,,,,,226.4144,Extremely Unattractive,Extremely  Attractive,mirrored,CFD_LM_203_026_N.png,NASALTIP,2,50.390625,3.6724,-0.001302083,-0.40234375,1,0,0,NextBu,0.850408217,42,0,42,0,1,614dc631d748ca720a4b4cce,female,36,african,2022-07-29_14h45.45.412,FaceAttractiveness,2022.2.2,Win32,59.85873339,,,,,,,,
,,,,,231.6646,Extremely Unattractive,Extremely  Attractive,mirrored,CFD_LM_201_057_N.png,RCHEEK,2,74.47916667,2.6677,0.041666667,-0.385416667,1,0,0,NextBu,0.937167698,43,0,43,0,1,614dc631d748ca720a4b4cce,female,36,african,2022-07-29_14h45.45.412,FaceAttractiveness,2022.2.2,Win32,59.85873339,,,,,,,,
,,,,,236.0311,Extremely Unattractive,Extremely  Attractive,mirrored,CFD_LF_224_176_N.png,RCHEEK,2,74.86979167,2.2175,0.037760417,-0.369791667,1,0,0,NextBu,0.979150033,44,0,44,0,1,614dc631d748ca720a4b4cce,female,36,african,2022-07-29_14h45.45.412,FaceAttractiveness,2022.2.2,Win32,59.85873339,,,,,,,,
,,,,,240.1978,Extremely Unattractive,Extremely  Attractive,mirrored,CFD_BM_234_172_N.png,RCHEEK,2,75,3.0825,0.080729167,-0.40234375,1,0,0,NextBu,0.731629155,45,0,45,0,1,614dc631d748ca720a4b4cce,female,36,african,2022-07-29_14h45.45.412,FaceAttractiveness,2022.2.2,Win32,59.85873339,,,,,,,,
,,,,,244.9479,Extremely Unattractive,Extremely  Attractive,mirrored,CFD_BM_213_134_N.png,RCHEEK,2,74.609375,2.0968,0.052083333,-0.390625,1,0,0,NextBu,0.612810255,46,0,46,0,1,614dc631d748ca720a4b4cce,female,36,african,2022-07-29_14h45.45.412,FaceAttractiveness,2022.2.2,Win32,59.85873339,,,,,,,,
,,,,,248.3649,Extremely Unattractive,Extremely  Attractive,mirrored,CFD_BF_224_002_N.png,LCHEEK,2,74.609375,3.3892,0.05859375,-0.384114583,1,0,0,NextBu,0.77010882,47,0,47,0,1,614dc631d748ca720a4b4cce,female,36,african,2022-07-29_14h45.45.412,FaceAttractiveness,2022.2.2,Win32,59.85873339,,,,,,,,
,,,,,253.2977,Extremely Unattractive,Extremely  Attractive,mirrored,CFD_BF_214_308_N.png,NASALTIP,2,61.19791667,2.6148,0.00390625,-0.37890625,1,0,0,NextBu,0.877680448,48,0,48,0,1,614dc631d748ca720a4b4cce,female,36,african,2022-07-29_14h45.45.412,FaceAttractiveness,2022.2.2,Win32,59.85873339,,,,,,,,
,,,,,257.6147,Extremely Unattractive,Extremely  Attractive,mirrored,CFD_AM_233_236_N.png,RCHEEK,2,74.47916667,2.4324,0.015625,-0.377604167,1,0,0,NextBu,0.560312708,49,0,49,0,1,614dc631d748ca720a4b4cce,female,36,african,2022-07-29_14h45.45.412,FaceAttractiveness,2022.2.2,Win32,59.85873339,,,,,,,,
,,,,,261.6149,Extremely Unattractive,Extremely  Attractive,mirrored,CFD_AF_245_143_N.png,NASALTIP,2,60.80729167,1.8976,0.0390625,-0.38671875,1,0,0,NextBu,0.674972983,50,0,50,0,1,614dc631d748ca720a4b4cce,female,36,african,2022-07-29_14h45.45.412,FaceAttractiveness,2022.2.2,Win32,59.85873339,,,,,,,,
,,,,,265.0145,Extremely Unattractive,Extremely  Attractive,mirrored,CFD_AF_237_223_N.png,RCHEEK,2,74.73958333,2.2501,0.063802083,-0.37890625,1,0,0,NextBu,0.648449424,51,0,51,0,1,614dc631d748ca720a4b4cce,female,36,african,2022-07-29_14h45.45.412,FaceAttractiveness,2022.2.2,Win32,59.85873339,,,,,,,,
,,,,,268.8144,Extremely Unattractive,Extremely  Attractive,mirrored,CFD_AF_231_357_N.png,FOREHEAD,2,64.0625,3.556,0.0546875,-0.408854167,1,0,0,NextBu,0.984826084,52,0,52,0,1,614dc631d748ca720a4b4cce,female,36,african,2022-07-29_14h45.45.412,FaceAttractiveness,2022.2.2,Win32,59.85873339,,,,,,,,
,,,,,274.3815,Extremely Unattractive,Extremely  Attractive,mirrored,136_M_M_N_A.png,RCHEEK,2,62.109375,3.0977,0.046875,-0.376302083,1,0,0,NextBu,0.699533154,53,0,53,0,1,614dc631d748ca720a4b4cce,female,36,african,2022-07-29_14h45.45.412,FaceAttractiveness,2022.2.2,Win32,59.85873339,,,,,,,,
,,,,,278.8644,Extremely Unattractive,Extremely  Attractive,mirrored,087_M_M_N_A.png,LIP,2,87.76041667,3.4041,0.048177083,-0.40234375,1,0,0,NextBu,0.817582681,54,0,54,0,1,614dc631d748ca720a4b4cce,female,36,african,2022-07-29_14h45.45.412,FaceAttractiveness,2022.2.2,Win32,59.85873339,,,,,,,,
,,,,,283.9981,Extremely Unattractive,Extremely  Attractive,mirrored,035_M_F_N_A.png,FOREHEAD,2,74.47916667,2.2149,0.055989583,-0.415364583,1,0,0,NextBu,0.561079017,55,0,55,0,1,614dc631d748ca720a4b4cce,female,36,african,2022-07-29_14h45.45.412,FaceAttractiveness,2022.2.2,Win32,59.85873339,,,,,,,,
,,,,,288.2147,Extremely Unattractive,Extremely  Attractive,mirrored,006_M_F_N_A.png,FOREHEAD,2,74.73958333,2.5811,0.028645833,-0.391927083,1,0,0,NextBu,0.773339284,56,0,56,0,1,614dc631d748ca720a4b4cce,female,36,african,2022-07-29_14h45.45.412,FaceAttractiveness,2022.2.2,Win32,59.85873339,,,,,,,,
,,,,,292.2811,Extremely Unattractive,Extremely  Attractive,mirrored,CFD_WM_212_097_N.png,NASALTIP,3,59.50520833,3.0509,0.037760417,-0.36328125,1,0,0,NextBu,0.842792048,57,0,57,0,1,614dc631d748ca720a4b4cce,female,36,african,2022-07-29_14h45.45.412,FaceAttractiveness,2022.2.2,Win32,59.85873339,,,,,,,,
,,,,,296.9144,Extremely Unattractive,Extremely  Attractive,mirrored,CFD_WF_250_167_N.png,RCHEEK,3,61.71875,2.6149,0.046875,-0.389322917,1,0,0,NextBu,0.638445639,58,0,58,0,1,614dc631d748ca720a4b4cce,female,36,african,2022-07-29_14h45.45.412,FaceAttractiveness,2022.2.2,Win32,59.85873339,,,,,,,,
,,,,,300.8813,Extremely Unattractive,Extremely  Attractive,mirrored,CFD_WF_200_099_N.png,LCHEEK,3,74.73958333,2.4498,0.045572917,-0.365885417,1,0,0,NextBu,0.866065402,59,0,59,0,1,614dc631d748ca720a4b4cce,female,36,african,2022-07-29_14h45.45.412,FaceAttractiveness,2022.2.2,Win32,59.85873339,,,,,,,,
,,,,,305.0144,Extremely Unattractive,Extremely  Attractive,mirrored,CFD_WF_002_004_N.png,RCHEEK,3,70.83333333,4.5641,0.07421875,-0.365885417,1,0,0,NextBu,0.685313203,60,0,60,0,1,614dc631d748ca720a4b4cce,female,36,african,2022-07-29_14h45.45.412,FaceAttractiveness,2022.2.2,Win32,59.85873339,,,,,,,,
,,,,,311.0811,Extremely Unattractive,Extremely  Attractive,mirrored,CFD_LM_203_026_N.png,LIP,3,75.13020833,2.6649,0.036458333,-0.36328125,1,0,0,NextBu,0.640018561,61,0,61,0,1,614dc631d748ca720a4b4cce,female,36,african,2022-07-29_14h45.45.412,FaceAttractiveness,2022.2.2,Win32,59.85873339,,,,,,,,
,,,,,315.2481,Extremely Unattractive,Extremely  Attractive,mirrored,CFD_LM_201_057_N.png,FOREHEAD,3,86.45833333,3.3509,0.059895833,-0.3984375,1,0,0,NextBu,0.922134206,62,0,62,0,1,614dc631d748ca720a4b4cce,female,36,african,2022-07-29_14h45.45.412,FaceAttractiveness,2022.2.2,Win32,59.85873339,,,,,,,,
,,,,,320.315,Extremely Unattractive,Extremely  Attractive,mirrored,CFD_LF_224_176_N.png,FOREHEAD,3,74.86979167,2.6504,0.0859375,-0.380208333,1,0,0,NextBu,0.620967366,63,0,63,0,1,614dc631d748ca720a4b4cce,female,36,african,2022-07-29_14h45.45.412,FaceAttractiveness,2022.2.2,Win32,59.85873339,,,,,,,,
,,,,,324.2648,Extremely Unattractive,Extremely  Attractive,mirrored,CFD_BM_234_172_N.png,LCHEEK,3,80.59895833,2.5155,0.0625,-0.412760417,1,0,0,NextBu,0.701083691,64,0,64,0,1,614dc631d748ca720a4b4cce,female,36,african,2022-07-29_14h45.45.412,FaceAttractiveness,2022.2.2,Win32,59.85873339,,,,,,,,
,,,,,328.2978,Extremely Unattractive,Extremely  Attractive,mirrored,CFD_BM_213_134_N.png,LCHEEK,3,74.86979167,2.8174,0.065104167,-0.372395833,1,0,0,NextBu,0.937114925,65,0,65,0,1,614dc631d748ca720a4b4cce,female,36,african,2022-07-29_14h45.45.412,FaceAttractiveness,2022.2.2,Win32,59.85873339,,,,,,,,
,,,,,332.8813,Extremely Unattractive,Extremely  Attractive,mirrored,CFD_BF_224_002_N.png,FOREHEAD,3,75.13020833,1.9647,0.057291667,-0.381510417,1,0,0,NextBu,0.999285297,66,0,66,0,1,614dc631d748ca720a4b4cce,female,36,african,2022-07-29_14h45.45.412,FaceAttractiveness,2022.2.2,Win32,59.85873339,,,,,,,,
,,,,,336.6478,Extremely Unattractive,Extremely  Attractive,mirrored,CFD_BF_214_308_N.png,FOREHEAD,3,82.8125,4.0815,0.057291667,-0.361979167,1,0,0,NextBu,0.577219965,67,0,67,0,1,614dc631d748ca720a4b4cce,female,36,african,2022-07-29_14h45.45.412,FaceAttractiveness,2022.2.2,Win32,59.85873339,,,,,,,,
,,,,,342.2813,Extremely Unattractive,Extremely  Attractive,mirrored,CFD_AM_233_236_N.png,LIP,3,74.609375,5.3172,0.057291667,-0.372395833,1,0,0,NextBu,0.789457577,68,0,68,0,1,614dc631d748ca720a4b4cce,female,36,african,2022-07-29_14h45.45.412,FaceAttractiveness,2022.2.2,Win32,59.85873339,,,,,,,,
,,,,,349.1665,Extremely Unattractive,Extremely  Attractive,mirrored,CFD_AF_245_143_N.png,FOREHEAD,3,75.13020833,2.7822,0,-0.391927083,1,0,0,NextBu,0.871247295,69,0,69,0,1,614dc631d748ca720a4b4cce,female,36,african,2022-07-29_14h45.45.412,FaceAttractiveness,2022.2.2,Win32,59.85873339,,,,,,,,
,,,,,353.6815,Extremely Unattractive,Extremely  Attractive,mirrored,CFD_AF_237_223_N.png,LIP,3,80.46875,2.7674,0.028645833,-0.372395833,1,0,0,NextBu,0.84346822,70,0,70,0,1,614dc631d748ca720a4b4cce,female,36,african,2022-07-29_14h45.45.412,FaceAttractiveness,2022.2.2,Win32,59.85873339,,,,,,,,
,,,,,358.3466,Extremely Unattractive,Extremely  Attractive,mirrored,CFD_AF_231_357_N.png,RCHEEK,3,74.609375,2.4823,0.033854167,-0.37109375,1,0,0,NextBu,0.794434102,71,0,71,0,1,614dc631d748ca720a4b4cce,female,36,african,2022-07-29_14h45.45.412,FaceAttractiveness,2022.2.2,Win32,59.85873339,,,,,,,,
,,,,,362.4211,Extremely Unattractive,Extremely  Attractive,mirrored,136_M_M_N_A.png,NASALTIP,3,75,1.995,0.065104167,-0.373697917,1,0,0,NextBu,0.982804823,72,0,72,0,1,614dc631d748ca720a4b4cce,female,36,african,2022-07-29_14h45.45.412,FaceAttractiveness,2022.2.2,Win32,59.85873339,,,,,,,,
,,,,,366.1223,Extremely Unattractive,Extremely  Attractive,mirrored,087_M_M_N_A.png,NASALTIP,3,86.84895833,3.5258,0.040364583,-0.380208333,1,0,0,NextBu,0.726158325,73,0,73,0,1,614dc631d748ca720a4b4cce,female,36,african,2022-07-29_14h45.45.412,FaceAttractiveness,2022.2.2,Win32,59.85873339,,,,,,,,
,,,,,371.266,Extremely Unattractive,Extremely  Attractive,mirrored,035_M_F_N_A.png,LIP,3,75,2.1636,0.075520833,-0.3671875,1,0,0,NextBu,0.824658164,74,0,74,0,1,614dc631d748ca720a4b4cce,female,36,african,2022-07-29_14h45.45.412,FaceAttractiveness,2022.2.2,Win32,59.85873339,,,,,,,,
,,,,,375.1647,Extremely Unattractive,Extremely  Attractive,mirrored,006_M_F_N_A.png,LCHEEK,3,74.609375,2.5505,0.076822917,-0.388020833,1,0,0,NextBu,0.93427706,75,0,75,0,1,614dc631d748ca720a4b4cce,female,36,african,2022-07-29_14h45.45.412,FaceAttractiveness,2022.2.2,Win32,59.85873339,,,,,,,,
,,,,,379.3646,Extremely Unattractive,Extremely  Attractive,mirrored,CFD_WM_212_097_N.png,FOREHEAD,4,74.86979167,3.1998,0.063802083,-0.376302083,1,0,0,NextBu,0.697380848,76,0,76,0,1,614dc631d748ca720a4b4cce,female,36,african,2022-07-29_14h45.45.412,FaceAttractiveness,2022.2.2,Win32,59.85873339,,,,,,,,
,,,,,384.1435,Extremely Unattractive,Extremely  Attractive,mirrored,CFD_WF_250_167_N.png,NASALTIP,4,50.52083333,4.1284,-0.020833333,-0.37890625,1,0,0,NextBu,0.640280544,77,0,77,0,1,614dc631d748ca720a4b4cce,female,36,african,2022-07-29_14h45.45.412,FaceAttractiveness,2022.2.2,Win32,59.85873339,,,,,,,,
,,,,,389.7158,Extremely Unattractive,Extremely  Attractive,mirrored,CFD_WF_200_099_N.png,LIP,4,60.67708333,3.6707,0.0546875,-0.393229167,1,0,0,NextBu,0.747644625,78,0,78,0,1,614dc631d748ca720a4b4cce,female,36,african,2022-07-29_14h45.45.412,FaceAttractiveness,2022.2.2,Win32,59.85873339,,,,,,,,
,,,,,394.9633,Extremely Unattractive,Extremely  Attractive,mirrored,CFD_WF_002_004_N.png,FOREHEAD,4,75.13020833,3.0185,0.040364583,-0.384114583,1,0,0,NextBu,0.875662027,79,0,79,0,1,614dc631d748ca720a4b4cce,female,36,african,2022-07-29_14h45.45.412,FaceAttractiveness,2022.2.2,Win32,59.85873339,,,,,,,,
,,,,,399.5423,Extremely Unattractive,Extremely  Attractive,mirrored,CFD_LM_203_026_N.png,LCHEEK,4,75.390625,2.2227,0.040364583,-0.359375,1,0,0,NextBu,0.688528887,80,0,80,0,1,614dc631d748ca720a4b4cce,female,36,african,2022-07-29_14h45.45.412,FaceAttractiveness,2022.2.2,Win32,59.85873339,,,,,,,,
,,,,,403.1462,Extremely Unattractive,Extremely  Attractive,mirrored,CFD_LM_201_057_N.png,LCHEEK,4,82.8125,2.1754,0.044270833,-0.376302083,1,0,0,NextBu,0.511429646,81,0,81,0,1,614dc631d748ca720a4b4cce,female,36,african,2022-07-29_14h45.45.412,FaceAttractiveness,2022.2.2,Win32,59.85873339,,,,,,,,
,,,,,406.6221,Extremely Unattractive,Extremely  Attractive,mirrored,CFD_LF_224_176_N.png,LCHEEK,4,87.36979167,1.9411,0.063802083,-0.375,1,0,0,NextBu,0.825505898,82,0,82,0,1,614dc631d748ca720a4b4cce,female,36,african,2022-07-29_14h45.45.412,FaceAttractiveness,2022.2.2,Win32,59.85873339,,,,,,,,
,,,,,410.2157,Extremely Unattractive,Extremely  Attractive,mirrored,CFD_BM_234_172_N.png,NASALTIP,4,85.546875,1.9667,0.092447917,-0.360677083,1,0,0,NextBu,0.823394181,83,0,83,0,1,614dc631d748ca720a4b4cce,female,36,african,2022-07-29_14h45.45.412,FaceAttractiveness,2022.2.2,Win32,59.85873339,,,,,,,,
,,,,,414.2444,Extremely Unattractive,Extremely  Attractive,mirrored,CFD_BM_213_134_N.png,NASALTIP,4,74.47916667,3.1267,0.052083333,-0.388020833,1,0,0,NextBu,0.64020534,84,0,84,0,1,614dc631d748ca720a4b4cce,female,36,african,2022-07-29_14h45.45.412,FaceAttractiveness,2022.2.2,Win32,59.85873339,,,,,,,,
,,,,,419.8316,Extremely Unattractive,Extremely  Attractive,mirrored,CFD_BF_224_002_N.png,NASALTIP,4,74.34895833,2.6457,0.037760417,-0.372395833,1,0,0,NextBu,0.581666219,85,0,85,0,1,614dc631d748ca720a4b4cce,female,36,african,2022-07-29_14h45.45.412,FaceAttractiveness,2022.2.2,Win32,59.85873339,,,,,,,,
,,,,,423.8006,Extremely Unattractive,Extremely  Attractive,mirrored,CFD_BF_214_308_N.png,LCHEEK,4,85.15625,2.7539,-0.014322917,-0.368489583,1,0,0,NextBu,0.64345021,86,0,86,0,1,614dc631d748ca720a4b4cce,female,36,african,2022-07-29_14h45.45.412,FaceAttractiveness,2022.2.2,Win32,59.85873339,,,,,,,,
,,,,,428.2651,Extremely Unattractive,Extremely  Attractive,mirrored,CFD_AM_233_236_N.png,LCHEEK,4,74.34895833,2.0198,0.06640625,-0.373697917,1,0,0,NextBu,0.569944934,87,0,87,0,1,614dc631d748ca720a4b4cce,female,36,african,2022-07-29_14h45.45.412,FaceAttractiveness,2022.2.2,Win32,59.85873339,,,,,,,,
,,,,,431.5215,Extremely Unattractive,Extremely  Attractive,mirrored,CFD_AF_245_143_N.png,RCHEEK,4,80.59895833,2.9576,0.01171875,-0.419270833,1,0,0,NextBu,0.964467021,88,0,88,0,1,614dc631d748ca720a4b4cce,female,36,african,2022-07-29_14h45.45.412,FaceAttractiveness,2022.2.2,Win32,59.85873339,,,,,,,,
,,,,,436.1647,Extremely Unattractive,Extremely  Attractive,mirrored,CFD_AF_237_223_N.png,NASALTIP,4,74.86979167,2.6655,0.0234375,-0.401041667,1,0,0,NextBu,0.926039939,89,0,89,0,1,614dc631d748ca720a4b4cce,female,36,african,2022-07-29_14h45.45.412,FaceAttractiveness,2022.2.2,Win32,59.85873339,,,,,,,,
,,,,,440.6881,Extremely Unattractive,Extremely  Attractive,mirrored,CFD_AF_231_357_N.png,LCHEEK,4,74.47916667,2.8573,0.098958333,-0.369791667,1,0,0,NextBu,0.594124677,90,0,90,0,1,614dc631d748ca720a4b4cce,female,36,african,2022-07-29_14h45.45.412,FaceAttractiveness,2022.2.2,Win32,59.85873339,,,,,,,,
,,,,,444.9149,Extremely Unattractive,Extremely  Attractive,mirrored,136_M_M_N_A.png,LCHEEK,4,74.86979167,3.1988,0.03125,-0.369791667,1,0,0,NextBu,0.978228338,91,0,91,0,1,614dc631d748ca720a4b4cce,female,36,african,2022-07-29_14h45.45.412,FaceAttractiveness,2022.2.2,Win32,59.85873339,,,,,,,,
,,,,,449.7981,Extremely Unattractive,Extremely  Attractive,mirrored,087_M_M_N_A.png,RCHEEK,4,90.75520833,2.3681,0.0234375,-0.39453125,1,0,0,NextBu,0.908047502,92,0,92,0,1,614dc631d748ca720a4b4cce,female,36,african,2022-07-29_14h45.45.412,FaceAttractiveness,2022.2.2,Win32,59.85873339,,,,,,,,
,,,,,453.9897,Extremely Unattractive,Extremely  Attractive,mirrored,035_M_F_N_A.png,RCHEEK,4,75.26041667,1.9892,0.04296875,-0.365885417,1,0,0,NextBu,0.540039312,93,0,93,0,1,614dc631d748ca720a4b4cce,female,36,african,2022-07-29_14h45.45.412,FaceAttractiveness,2022.2.2,Win32,59.85873339,,,,,,,,
,,,,,457.233,Extremely Unattractive,Extremely  Attractive,mirrored,006_M_F_N_A.png,LIP,4,75.52083333,2.8327,0.059895833,-0.372395833,1,0,0,NextBu,0.649736734,94,0,94,0,1,614dc631d748ca720a4b4cce,female,36,african,2022-07-29_14h45.45.412,FaceAttractiveness,2022.2.2,Win32,59.85873339,,,,,,,,
,,,,,,,,,,,,,,,,,,,,,,,,,,614dc631d748ca720a4b4cce,female,36,african,2022-07-29_14h45.45.412,FaceAttractiveness,2022.2.2,Win32,59.85873339,0,0,0,0,1,Attractiveness,Extremely  Attractive,Extremely Unattractive
,,,,,,,,,,,,,,,,,,,,,,,,,,614dc631d748ca720a4b4cce,female,36,african,2022-07-29_14h45.45.412,FaceAttractiveness,2022.2.2,Win32,59.85873339,,,,,,,,
