faceImages,originalFaceTrials.thisRepN,originalFaceTrials.thisTrialN,originalFaceTrials.thisN,originalFaceTrials.thisIndex,ques_instr.started,mouse_4.started,mouse_4.x,mouse_4.y,mouse_4.leftButton,mouse_4.midButton,mouse_4.rightButton,mouse_4.time,mouse_4.clicked_name,slider_rad_therapy.started,text_rad_therapy.started,slider_surgery.started,text_surgery.started,image.started,mouse_6.started,slider_rad_therapy.response,slider_rad_therapy.rt,slider_surgery.response,slider_surgery.rt,mouse_6.x,mouse_6.y,mouse_6.leftButton,mouse_6.midButton,mouse_6.rightButton,mouse_6.time,mouse_6.clicked_name,instrBlock.started,mouse.started,mouse.x,mouse.y,mouse.leftButton,mouse.midButton,mouse.rightButton,mouse.clicked_name,face_image.started,slider_treatment_surgery.started,NextBu.started,slider_treatment_radiation.started,text_treatment_surgery.started,text_treatment_radiation.started,mouse_5.started,slider_treatment_surgery.response,slider_treatment_surgery.rt,mouse_5.x,mouse_5.y,mouse_5.leftButton,mouse_5.midButton,mouse_5.rightButton,mouse_5.clicked_name,slider_treatment_radiation.response,slider_treatment_radiation.rt,ITI,text.started,text.stopped,Name,Gender,Age,Ethnicity,date,expName,psychopyVersion,frameRate,
,,,,,8.852230700000291,0.5000602000000072,[-0.15],[0.11018518518518519],[1],[0],[0],[0.5143106000004991],['ques_instr'],,,,,,,,,,,,,,,,,,,,,,,,,,,,,,,,,,,,,,,,,,,,,,,,,,2023-04-07_21h51.21.854,FaceAttractiveness,2022.2.5,140.22157813774626,
,,,,,,,,,,,,,,9.908539000000019,9.908539000000019,9.908539000000019,9.908539000000019,9.908539000000019,0.0012834999997721752,2.4,0.13437640000029205,None,None,[0.6592592592592592],[-0.3731481481481482],[1],[0],[0],[4.250950799999373],['image'],,,,,,,,,,,,,,,,,,,,,,,,,,,,,,,,,2023-04-07_21h51.21.854,FaceAttractiveness,2022.2.5,140.22157813774626,
,,,,,,,,,,,,,,,,,,,,,,,,,,,,,,,14.132578900000226,0.5015400000002046,-0.16018518518518518,0.07037037037037037,1,0,0,instrBlock,,,,,,,,,,,,,,,,,,,,,,,,,2023-04-07_21h51.21.854,FaceAttractiveness,2022.2.5,140.22157813774626,
images\FOREHEAD_006_M_F_N_A.png,0,0,0,0,,,,,,,,,,,,,,,,,,,,,,,,,,,,,,,,,,,15.223210799999833,15.514121799999884,15.514121799999884,15.514121799999884,15.514121799999884,15.514121799999884,0.3085066999992705,39.07407407407407,1.3662924000000203,0.016666666666666666,-0.40925925925925927,1,0,0,NextBu,55.55555555555556,2.156227999999828,0.8912575966673106,17.97964090000005,18.87355910000042,,,,,2023-04-07_21h51.21.854,FaceAttractiveness,2022.2.5,140.22157813774626,
images\FOREHEAD_035_M_F_N_A.png,0,1,1,1,,,,,,,,,,,,,,,,,,,,,,,,,,,,,,,,,,,18.87355910000042,19.17300940000041,19.17300940000041,19.17300940000041,19.17300940000041,19.17300940000041,0.3083114999999452,47.592592592592595,0.7117636000002676,0.004629629629629629,-0.4064814814814815,1,0,0,NextBu,58.98148148148148,1.7003955999998652,0.7606889503479899,20.95417009999983,21.720952200000283,,,,,2023-04-07_21h51.21.854,FaceAttractiveness,2022.2.5,140.22157813774626,
images\FOREHEAD_087_M_M_N_A.png,0,2,2,2,,,,,,,,,,,,,,,,,,,,,,,,,,,,,,,,,,,21.720952200000283,22.020275400000173,22.020275400000173,22.020275400000173,22.020275400000173,22.020275400000173,0.308187600000565,48.7962962962963,0.7268508000006477,0.000925925925925926,-0.4083333333333333,1,0,0,NextBu,57.12962962962963,1.3797451000000365,0.6434474289407675,23.54472650000025,24.192609099999572,,,,,2023-04-07_21h51.21.854,FaceAttractiveness,2022.2.5,140.22157813774626,
images\FOREHEAD_136_M_M_N_A.png,0,3,3,3,,,,,,,,,,,,,,,,,,,,,,,,,,,,,,,,,,,24.192609099999572,24.491548599999987,24.491548599999987,24.491548599999987,24.491548599999987,24.491548599999987,0.3074429999996937,50.09259259259259,0.9580945999996402,0.03981481481481482,-0.412962962962963,1,0,0,NextBu,55.46296296296296,1.4923662999999578,0.7818842515206318,26.12095330000011,26.909767199999806,,,,,2023-04-07_21h51.21.854,FaceAttractiveness,2022.2.5,140.22157813774626,
images\FOREHEAD_CFD_AF_231_357_N.png,0,4,4,4,,,,,,,,,,,,,,,,,,,,,,,,,,,,,,,,,,,26.909767199999806,27.207432700000027,27.207432700000027,27.207432700000027,27.207432700000027,27.207432700000027,0.29903550000017276,52.77777777777778,0.9369185999994443,0.04537037037037037,-0.4046296296296296,1,0,0,NextBu,55.925925925925924,1.8720262000006187,0.6317128000001582,29.211624599999595,29.846059700000296,,,,,2023-04-07_21h51.21.854,FaceAttractiveness,2022.2.5,140.22157813774626,
images\FOREHEAD_CFD_AF_237_223_N.png,0,5,5,5,,,,,,,,,,,,,,,,,,,,,,,,,,,,,,,,,,,29.846059700000296,30.13773669999955,30.13773669999955,30.13773669999955,30.13773669999955,30.13773669999955,0.30103950000011537,53.425925925925924,0.9384715999995024,0.03425925925925926,-0.3962962962962963,1,0,0,NextBu,60.0,1.5854638000000705,0.8567996187029863,31.88289470000018,32.74160099999972,,,,,2023-04-07_21h51.21.854,FaceAttractiveness,2022.2.5,140.22157813774626,
images\FOREHEAD_CFD_AF_245_143_N.png,0,6,6,6,,,,,,,,,,,,,,,,,,,,,,,,,,,,,,,,,,,32.74160099999972,33.04023890000008,33.04023890000008,33.04023890000008,33.04023890000008,33.04023890000008,0.3080038999996759,48.888888888888886,1.135628999999426,0.006481481481481481,-0.39537037037037037,1,0,0,NextBu,58.05555555555556,1.7621665999995457,0.8041358523727835,34.89136849999977,35.69942379999975,,,,,2023-04-07_21h51.21.854,FaceAttractiveness,2022.2.5,140.22157813774626,
images\FOREHEAD_CFD_AM_233_236_N.png,0,7,7,7,,,,,,,,,,,,,,,,,,,,,,,,,,,,,,,,,,,35.69942379999975,35.9936759000002,35.9936759000002,35.9936759000002,35.9936759000002,35.9936759000002,0.3031497000001764,46.85185185185185,1.0773503999998866,0.014814814814814815,-0.37037037037037035,1,0,0,NextBu,60.18518518518518,1.6974120000004405,0.9010581147858665,37.86395040000025,38.77167610000015,,,,,2023-04-07_21h51.21.854,FaceAttractiveness,2022.2.5,140.22157813774626,
images\FOREHEAD_CFD_BF_214_308_N.png,0,8,8,8,,,,,,,,,,,,,,,,,,,,,,,,,,,,,,,,,,,38.77167610000015,39.06864419999965,39.06864419999965,39.06864419999965,39.06864419999965,39.06864419999965,0.30797100000017963,47.22222222222222,1.0267585999999937,0.003703703703703704,-0.41203703703703703,1,0,0,NextBu,60.55555555555555,1.7756703000004563,0.7249584716186996,40.98393049999959,41.714092000000164,,,,,2023-04-07_21h51.21.854,FaceAttractiveness,2022.2.5,140.22157813774626,
images\FOREHEAD_CFD_BF_224_002_N.png,0,9,9,9,,,,,,,,,,,,,,,,,,,,,,,,,,,,,,,,,,,41.714092000000164,42.00541040000007,42.00541040000007,42.00541040000007,42.00541040000007,42.00541040000007,0.3011350999995557,57.22222222222222,1.3245791999997891,0.03518518518518519,-0.4185185185185185,1,0,0,NextBu,55.74074074074073,2.413869500000146,0.7186785859533538,44.66898949999995,45.39343579999968,,,,,2023-04-07_21h51.21.854,FaceAttractiveness,2022.2.5,140.22157813774626,
images\FOREHEAD_CFD_BM_213_134_N.png,0,10,10,10,,,,,,,,,,,,,,,,,,,,,,,,,,,,,,,,,,,45.39343579999968,45.69260800000029,45.69260800000029,45.69260800000029,45.69260800000029,45.69260800000029,0.30778559999998834,49.907407407407405,4.408531700000822,0.041666666666666664,-0.42962962962962964,1,0,0,NextBu,56.481481481481474,5.1959538999999495,0.5914526112591253,51.12753689999954,51.727278399999705,,,,,2023-04-07_21h51.21.854,FaceAttractiveness,2022.2.5,140.22157813774626,
images\FOREHEAD_CFD_BM_234_172_N.png,0,11,11,11,,,,,,,,,,,,,,,,,,,,,,,,,,,,,,,,,,,51.727278399999705,52.0192348999999,52.0192348999999,52.0192348999999,52.0192348999999,52.0192348999999,0.3013757999997324,53.05555555555556,1.0983450000003359,-0.022222222222222223,-0.4027777777777778,1,0,0,NextBu,55.37037037037037,1.8130758999996033,0.932308920497479,54.148037699999804,55.0891658999999,,,,,2023-04-07_21h51.21.854,FaceAttractiveness,2022.2.5,140.22157813774626,
images\FOREHEAD_CFD_LF_224_176_N.png,0,12,12,12,,,,,,,,,,,,,,,,,,,,,,,,,,,,,,,,,,,55.0891658999999,55.38651670000036,55.38651670000036,55.38651670000036,55.38651670000036,55.38651670000036,0.3072672000007515,45.46296296296296,1.1238715999998021,0.000925925925925926,-0.4111111111111111,1,0,0,NextBu,55.833333333333336,1.7106667999996716,0.7442268998090324,57.257596000000376,58.012042199999996,,,,,2023-04-07_21h51.21.854,FaceAttractiveness,2022.2.5,140.22157813774626,
images\FOREHEAD_CFD_LM_201_057_N.png,0,13,13,13,,,,,,,,,,,,,,,,,,,,,,,,,,,,,,,,,,,58.012042199999996,58.30297040000005,58.30297040000005,58.30297040000005,58.30297040000005,58.30297040000005,0.30343340000035823,43.333333333333336,0.9567564999997558,0.04722222222222222,-0.4027777777777778,1,0,0,NextBu,56.2962962962963,2.0316983000002438,0.7112383190868379,60.34378780000043,61.06087949999983,,,,,2023-04-07_21h51.21.854,FaceAttractiveness,2022.2.5,140.22157813774626,
images\FOREHEAD_CFD_LM_203_026_N.png,0,14,14,14,,,,,,,,,,,,,,,,,,,,,,,,,,,,,,,,,,,61.06087949999983,61.35832380000011,61.35832380000011,61.35832380000011,61.35832380000011,61.35832380000011,0.3072627999999895,45.83333333333333,3.4077822999997807,0.024074074074074074,-0.37407407407407406,1,0,0,NextBu,58.51851851851851,5.6723745999997846,0.9855136390729831,67.11294850000013,68.10610799999995,,,,,2023-04-07_21h51.21.854,FaceAttractiveness,2022.2.5,140.22157813774626,
images\FOREHEAD_CFD_WF_002_004_N.png,0,15,15,15,,,,,,,,,,,,,,,,,,,,,,,,,,,,,,,,,,,68.10610799999995,68.40047059999961,68.40047059999961,68.40047059999961,68.40047059999961,68.40047059999961,0.3060889999997016,53.703703703703695,1.0888523999992685,-0.004629629629629629,-0.4111111111111111,1,0,0,NextBu,56.018518518518526,1.678248000000167,0.5146490025565222,70.23797550000018,70.75493900000038,,,,,2023-04-07_21h51.21.854,FaceAttractiveness,2022.2.5,140.22157813774626,
images\FOREHEAD_CFD_WF_200_099_N.png,0,16,16,16,,,,,,,,,,,,,,,,,,,,,,,,,,,,,,,,,,,70.75493900000038,71.05300790000001,71.05300790000001,71.05300790000001,71.05300790000001,71.05300790000001,0.3072863999996116,52.59259259259259,0.8957651999999143,-0.005555555555555556,-0.4009259259259259,1,0,0,NextBu,54.72222222222223,1.7111422999996648,0.6505523311499654,73.10532700000022,73.76114080000025,,,,,2023-04-07_21h51.21.854,FaceAttractiveness,2022.2.5,140.22157813774626,
images\FOREHEAD_CFD_WF_250_167_N.png,0,17,17,17,,,,,,,,,,,,,,,,,,,,,,,,,,,,,,,,,,,73.76114080000025,74.05919549999999,74.05919549999999,74.05919549999999,74.05919549999999,74.05919549999999,0.30715150000014546,54.81481481481482,1.383623499999885,-0.002777777777777778,-0.38055555555555554,1,0,0,NextBu,51.94444444444445,2.2895453999999518,0.5215436218942849,76.52946340000017,77.05501170000025,,,,,2023-04-07_21h51.21.854,FaceAttractiveness,2022.2.5,140.22157813774626,
images\FOREHEAD_CFD_WM_212_097_N.png,0,18,18,18,,,,,,,,,,,,,,,,,,,,,,,,,,,,,,,,,,,77.05501170000025,77.35109300000022,77.35109300000022,77.35109300000022,77.35109300000022,77.35109300000022,0.3065698999998858,44.074074074074076,0.959933799999817,0.003703703703703704,-0.4222222222222222,1,0,0,NextBu,42.77777777777778,1.7831664999994246,0.867713424792248,79.37696789999973,80.24785659999998,,,,,2023-04-07_21h51.21.854,FaceAttractiveness,2022.2.5,140.22157813774626,
images\LCHEEK_006_M_F_N_A.png,0,19,19,19,,,,,,,,,,,,,,,,,,,,,,,,,,,,,,,,,,,80.24785659999998,80.53929200000039,80.53929200000039,80.53929200000039,80.53929200000039,80.53929200000039,0.30100489999949787,41.66666666666667,0.9441445000002204,-0.03333333333333333,-0.41574074074074074,1,0,0,NextBu,56.851851851851855,1.6176150000001144,0.6223589558733829,82.30704929999956,82.93555050000032,,,,,2023-04-07_21h51.21.854,FaceAttractiveness,2022.2.5,140.22157813774626,
images\LCHEEK_035_M_F_N_A.png,0,20,20,20,,,,,,,,,,,,,,,,,,,,,,,,,,,,,,,,,,,82.93555050000032,83.23260980000032,83.23260980000032,83.23260980000032,83.23260980000032,83.23260980000032,0.3069076000001587,50.55555555555556,0.8818803000003754,-0.025,-0.4027777777777778,1,0,0,NextBu,53.888888888888886,1.6105167000005167,0.7182214321735201,84.91827680000006,85.64306510000006,,,,,2023-04-07_21h51.21.854,FaceAttractiveness,2022.2.5,140.22157813774626,
images\LCHEEK_087_M_M_N_A.png,0,21,21,21,,,,,,,,,,,,,,,,,,,,,,,,,,,,,,,,,,,85.64306510000006,85.94125890000032,85.94125890000032,85.94125890000032,85.94125890000032,85.94125890000032,0.30740220000006957,46.75925925925926,2.525119199999608,-0.019444444444444445,-0.425,1,0,0,NextBu,54.35185185185185,3.8482223999999405,0.9338948284936488,89.97329549999995,90.91351229999964,,,,,2023-04-07_21h51.21.854,FaceAttractiveness,2022.2.5,140.22157813774626,
images\LCHEEK_136_M_M_N_A.png,0,22,22,22,,,,,,,,,,,,,,,,,,,,,,,,,,,,,,,,,,,90.91351229999964,91.21357850000004,91.21357850000004,91.21357850000004,91.21357850000004,91.21357850000004,0.309049600000435,53.425925925925924,0.9112731000004715,-0.005555555555555556,-0.387037037037037,1,0,0,NextBu,52.407407407407405,1.5672051000001375,0.6925963358992429,93.07105460000002,93.76857740000014,,,,,2023-04-07_21h51.21.854,FaceAttractiveness,2022.2.5,140.22157813774626,
images\LCHEEK_CFD_AF_231_357_N.png,0,23,23,23,,,,,,,,,,,,,,,,,,,,,,,,,,,,,,,,,,,93.76857740000014,94.06148490000032,94.06148490000032,94.06148490000032,94.06148490000032,94.06148490000032,0.30325810000067577,55.46296296296296,1.0002927999994427,0.006481481481481481,-0.39444444444444443,1,0,0,NextBu,53.24074074074075,1.6978853999999046,0.9271902135176249,95.96661210000002,96.90017549999993,,,,,2023-04-07_21h51.21.854,FaceAttractiveness,2022.2.5,140.22157813774626,
images\LCHEEK_CFD_AF_237_223_N.png,0,24,24,24,,,,,,,,,,,,,,,,,,,,,,,,,,,,,,,,,,,96.90017549999993,97.19757430000027,97.19757430000027,97.19757430000027,97.19757430000027,97.19757430000027,0.30747020000035263,56.018518518518526,1.0461480999993,0.032407407407407406,-0.39444444444444443,1,0,0,NextBu,54.25925925925926,1.6727413999997225,0.8903279353334219,99.1049608000003,99.9967942000003,,,,,2023-04-07_21h51.21.854,FaceAttractiveness,2022.2.5,140.22157813774626,
images\LCHEEK_CFD_AF_245_143_N.png,0,25,25,25,,,,,,,,,,,,,,,,,,,,,,,,,,,,,,,,,,,99.9967942000003,100.2949166999997,100.2949166999997,100.2949166999997,100.2949166999997,100.2949166999997,0.30711890000020503,55.55555555555556,0.8060883999996804,-0.012962962962962963,-0.40370370370370373,1,0,0,NextBu,52.96296296296297,1.4349334999997154,0.8768534517659529,101.91760950000025,102.80245420000028,,,,,2023-04-07_21h51.21.854,FaceAttractiveness,2022.2.5,140.22157813774626,
images\LCHEEK_CFD_AM_233_236_N.png,0,26,26,26,,,,,,,,,,,,,,,,,,,,,,,,,,,,,,,,,,,102.80245420000028,103.10021919999963,103.10021919999963,103.10021919999963,103.10021919999963,103.10021919999963,0.3069405000005645,40.18518518518518,1.0388119999997798,-0.009259259259259259,-0.40555555555555556,1,0,0,NextBu,50.74074074074074,1.6439080000000104,0.6562196828425539,105.3063917999998,105.97071109999979,,,,,2023-04-07_21h51.21.854,FaceAttractiveness,2022.2.5,140.22157813774626,
images\LCHEEK_CFD_BF_214_308_N.png,0,27,27,27,,,,,,,,,,,,,,,,,,,,,,,,,,,,,,,,,,,105.97071109999979,106.26720399999977,106.26720399999977,106.26720399999977,106.26720399999977,106.26720399999977,0.30731379999997444,46.01851851851852,0.9945489000001544,0.001851851851851852,-0.40185185185185185,1,0,0,NextBu,54.166666666666664,1.7621576999999888,0.8750740138216638,108.09106789999987,108.96980660000008,,,,,2023-04-07_21h51.21.854,FaceAttractiveness,2022.2.5,140.22157813774626,
images\LCHEEK_CFD_BF_224_002_N.png,0,28,28,28,,,,,,,,,,,,,,,,,,,,,,,,,,,,,,,,,,,108.96980660000008,109.26718439999968,109.26718439999968,109.26718439999968,109.26718439999968,109.26718439999968,0.3074984000004406,45.83333333333333,1.9169898999998622,0.02962962962962963,-0.3888888888888889,1,0,0,NextBu,56.481481481481474,2.6471112999997786,0.8553466726397563,112.09929860000011,112.96210059999976,,,,,2023-04-07_21h51.21.854,FaceAttractiveness,2022.2.5,140.22157813774626,
images\LCHEEK_CFD_BM_213_134_N.png,0,29,29,29,,,,,,,,,,,,,,,,,,,,,,,,,,,,,,,,,,,112.96210059999976,113.26094399999965,113.26094399999965,113.26094399999965,113.26094399999965,113.26094399999965,0.30800660000022617,35.370370370370374,0.9356762999996135,-0.019444444444444445,-0.3675925925925926,1,0,0,NextBu,57.96296296296296,1.4708958000001076,0.9138308934263217,114.82814679999956,115.74708329999976,,,,,2023-04-07_21h51.21.854,FaceAttractiveness,2022.2.5,140.22157813774626,
images\LCHEEK_CFD_BM_234_172_N.png,0,30,30,30,,,,,,,,,,,,,,,,,,,,,,,,,,,,,,,,,,,115.74708329999976,116.04535719999967,116.04535719999967,116.04535719999967,116.04535719999967,116.04535719999967,0.3076816000002509,44.351851851851855,1.0712268000006588,-0.040740740740740744,-0.4462962962962963,1,0,0,NextBu,55.648148148148145,1.8186243000000104,0.6161126352541849,117.92408259999956,118.54572709999957,,,,,2023-04-07_21h51.21.854,FaceAttractiveness,2022.2.5,140.22157813774626,
images\LCHEEK_CFD_LF_224_176_N.png,0,31,31,31,,,,,,,,,,,,,,,,,,,,,,,,,,,,,,,,,,,118.54572709999957,118.83676190000006,118.83676190000006,118.83676190000006,118.83676190000006,118.83676190000006,0.3010924000000159,42.407407407407405,0.9453182999995988,0.041666666666666664,-0.4074074074074074,1,0,0,NextBu,53.98148148148149,1.6383651999994981,0.8846521741029972,120.67470030000004,121.56622179999977,,,,,2023-04-07_21h51.21.854,FaceAttractiveness,2022.2.5,140.22157813774626,
images\LCHEEK_CFD_LM_201_057_N.png,0,32,32,32,,,,,,,,,,,,,,,,,,,,,,,,,,,,,,,,,,,121.56622179999977,121.86412070000006,121.86412070000006,121.86412070000006,121.86412070000006,121.86412070000006,0.3074534000006679,43.611111111111114,1.0110566000003018,0.014814814814814815,-0.3851851851851852,1,0,0,NextBu,54.35185185185185,1.8604377000001477,0.5733578392310241,123.73652250000032,124.31642170000032,,,,,2023-04-07_21h51.21.854,FaceAttractiveness,2022.2.5,140.22157813774626,
images\LCHEEK_CFD_LM_203_026_N.png,0,33,33,33,,,,,,,,,,,,,,,,,,,,,,,,,,,,,,,,,,,124.31642170000032,124.6160630000004,124.6160630000004,124.6160630000004,124.6160630000004,124.6160630000004,0.3093725999997332,46.666666666666664,1.043097800000396,0.012037037037037037,-0.39444444444444443,1,0,0,NextBu,60.0,1.6961301999999705,0.5111493213767778,126.40334540000003,126.92090370000005,,,,,2023-04-07_21h51.21.854,FaceAttractiveness,2022.2.5,140.22157813774626,
images\LCHEEK_CFD_WF_002_004_N.png,0,34,34,34,,,,,,,,,,,,,,,,,,,,,,,,,,,,,,,,,,,126.92090370000005,127.21859969999969,127.21859969999969,127.21859969999969,127.21859969999969,127.21859969999969,0.3074622999993153,40.55555555555556,1.050901000000522,-0.041666666666666664,-0.37777777777777777,1,0,0,NextBu,45.27777777777778,2.443706199999724,0.8326883511258614,129.7226929999997,130.55972289999954,,,,,2023-04-07_21h51.21.854,FaceAttractiveness,2022.2.5,140.22157813774626,
images\LCHEEK_CFD_WF_200_099_N.png,0,35,35,35,,,,,,,,,,,,,,,,,,,,,,,,,,,,,,,,,,,130.55972289999954,130.85882010000023,130.85882010000023,130.85882010000023,130.85882010000023,130.85882010000023,0.3092447999997603,45.092592592592595,0.9253648000003523,-0.01574074074074074,-0.3685185185185185,1,0,0,NextBu,50.83333333333333,1.624000600000727,0.6023295370456597,132.5700479999996,133.17698279999968,,,,,2023-04-07_21h51.21.854,FaceAttractiveness,2022.2.5,140.22157813774626,
images\LCHEEK_CFD_WF_250_167_N.png,0,36,36,36,,,,,,,,,,,,,,,,,,,,,,,,,,,,,,,,,,,133.17698279999968,133.4745450999999,133.4745450999999,133.4745450999999,133.4745450999999,133.4745450999999,0.3068135000003167,38.425925925925924,0.864985400000478,-0.012037037037037037,-0.3907407407407407,1,0,0,NextBu,53.7962962962963,1.4688231999998607,0.8980045946294961,134.96660340000017,135.87356199999977,,,,,2023-04-07_21h51.21.854,FaceAttractiveness,2022.2.5,140.22157813774626,
images\LCHEEK_CFD_WM_212_097_N.png,0,37,37,37,,,,,,,,,,,,,,,,,,,,,,,,,,,,,,,,,,,135.87356199999977,136.16941130000032,136.16941130000032,136.16941130000032,136.16941130000032,136.16941130000032,0.3072704000005615,44.907407407407405,0.9114583999999013,-0.004629629629629629,-0.3509259259259259,1,0,0,NextBu,53.24074074074075,1.5866748999997071,0.5261838029894015,137.78667609999957,138.31633760000022,,,,,2023-04-07_21h51.21.854,FaceAttractiveness,2022.2.5,140.22157813774626,
images\LIP_006_M_F_N_A.png,0,38,38,38,,,,,,,,,,,,,,,,,,,,,,,,,,,,,,,,,,,138.31633760000022,138.61367419999988,138.61367419999988,138.61367419999988,138.61367419999988,138.61367419999988,0.30742499999996653,45.83333333333333,0.833559100000457,0.016666666666666666,-0.37407407407407406,1,0,0,NextBu,55.37037037037037,1.4904349999997066,0.9864135741714906,140.18030699999963,141.16930560000037,,,,,2023-04-07_21h51.21.854,FaceAttractiveness,2022.2.5,140.22157813774626,
images\LIP_035_M_F_N_A.png,0,39,39,39,,,,,,,,,,,,,,,,,,,,,,,,,,,,,,,,,,,141.16930560000037,141.46668630000022,141.46668630000022,141.46668630000022,141.46668630000022,141.46668630000022,0.306871300000239,50.18518518518519,1.0417943000002197,0.046296296296296294,-0.3685185185185185,1,0,0,NextBu,54.25925925925926,1.6996944000002259,0.9029650460191817,143.21537499999977,144.1228987000004,,,,,2023-04-07_21h51.21.854,FaceAttractiveness,2022.2.5,140.22157813774626,
images\LIP_087_M_M_N_A.png,0,40,40,40,,,,,,,,,,,,,,,,,,,,,,,,,,,,,,,,,,,144.1228987000004,144.41966599999978,144.41966599999978,144.41966599999978,144.41966599999978,144.41966599999978,0.30769599999985076,45.370370370370374,0.889467699999841,-0.017592592592592594,-0.36018518518518516,1,0,0,NextBu,50.46296296296296,1.5315371999995477,0.9133862424237438,145.93036779999966,146.8508824999999,,,,,2023-04-07_21h51.21.854,FaceAttractiveness,2022.2.5,140.22157813774626,
images\LIP_136_M_M_N_A.png,0,41,41,41,,,,,,,,,,,,,,,,,,,,,,,,,,,,,,,,,,,146.8508824999999,147.14847809999992,147.14847809999992,147.14847809999992,147.14847809999992,147.14847809999992,0.30705760000000737,48.51851851851852,0.8161088999995627,-0.05277777777777778,-0.40370370370370373,1,0,0,NextBu,48.7037037037037,1.4422878000004857,0.8020714834947301,148.68738399999984,149.49755860000005,,,,,2023-04-07_21h51.21.854,FaceAttractiveness,2022.2.5,140.22157813774626,
images\LIP_CFD_AF_231_357_N.png,0,42,42,42,,,,,,,,,,,,,,,,,,,,,,,,,,,,,,,,,,,149.49755860000005,149.79410889999963,149.79410889999963,149.79410889999963,149.79410889999963,149.79410889999963,0.30760190000000875,45.18518518518518,0.7332046000001355,-0.040740740740740744,-0.40185185185185185,1,0,0,NextBu,51.75925925925926,1.388337500000489,0.7050341899529102,151.20108470000014,151.91280499999993,,,,,2023-04-07_21h51.21.854,FaceAttractiveness,2022.2.5,140.22157813774626,
images\LIP_CFD_AF_237_223_N.png,0,43,43,43,,,,,,,,,,,,,,,,,,,,,,,,,,,,,,,,,,,151.91280499999993,152.21110810000027,152.21110810000027,152.21110810000027,152.21110810000027,152.21110810000027,0.2990300000001298,44.25925925925926,1.0317659000002095,0.016666666666666666,-0.4027777777777778,1,0,0,NextBu,49.907407407407405,2.6329451999999947,0.9071807730847994,154.92388120000032,155.83740219999981,,,,,2023-04-07_21h51.21.854,FaceAttractiveness,2022.2.5,140.22157813774626,
images\LIP_CFD_AF_245_143_N.png,0,44,44,44,,,,,,,,,,,,,,,,,,,,,,,,,,,,,,,,,,,155.83740219999981,156.1345449999999,156.1345449999999,156.1345449999999,156.1345449999999,156.1345449999999,0.3077707000002192,49.25925925925926,0.8642406999997547,0.024074074074074074,-0.3907407407407407,1,0,0,NextBu,51.94444444444445,1.7061711000005744,0.5970337446189009,157.8673015000004,158.46775760000037,,,,,2023-04-07_21h51.21.854,FaceAttractiveness,2022.2.5,140.22157813774626,
images\LIP_CFD_AM_233_236_N.png,0,45,45,45,,,,,,,,,,,,,,,,,,,,,,,,,,,,,,,,,,,158.46775760000037,158.76807929999995,158.76807929999995,158.76807929999995,158.76807929999995,158.76807929999995,0.3096565999994709,50.46296296296296,0.8532193999999436,0.008333333333333333,-0.3925925925925926,1,0,0,NextBu,53.333333333333336,1.4389234000000215,0.6837780260402158,160.28440469999987,160.97642799999994,,,,,2023-04-07_21h51.21.854,FaceAttractiveness,2022.2.5,140.22157813774626,
images\LIP_CFD_BF_214_308_N.png,0,46,46,46,,,,,,,,,,,,,,,,,,,,,,,,,,,,,,,,,,,160.97642799999994,161.27316510000037,161.27316510000037,161.27316510000037,161.27316510000037,161.27316510000037,0.3076005000002624,45.64814814814815,0.7673727000001236,0.009259259259259259,-0.37962962962962965,1,0,0,NextBu,52.96296296296297,1.4500095000003057,0.7212325889525906,162.90977199999998,163.63524979999966,,,,,2023-04-07_21h51.21.854,FaceAttractiveness,2022.2.5,140.22157813774626,
images\LIP_CFD_BF_224_002_N.png,0,47,47,47,,,,,,,,,,,,,,,,,,,,,,,,,,,,,,,,,,,163.63524979999966,163.93267899999955,163.93267899999955,163.93267899999955,163.93267899999955,163.93267899999955,0.3074263999997129,46.01851851851852,0.8526473000001715,-0.012962962962962963,-0.43148148148148147,1,0,0,NextBu,51.75925925925926,1.662279099999978,0.8724889055540039,165.69696639999984,166.57159130000036,,,,,2023-04-07_21h51.21.854,FaceAttractiveness,2022.2.5,140.22157813774626,
images\LIP_CFD_BM_213_134_N.png,0,48,48,48,,,,,,,,,,,,,,,,,,,,,,,,,,,,,,,,,,,166.57159130000036,166.8698900999998,166.8698900999998,166.8698900999998,166.8698900999998,166.8698900999998,0.3071626999999353,49.72222222222222,0.8625304000006508,-0.020370370370370372,-0.4083333333333333,1,0,0,NextBu,51.01851851851852,1.5901191000002655,0.6852040351048789,168.5367282999996,169.2256481000004,,,,,2023-04-07_21h51.21.854,FaceAttractiveness,2022.2.5,140.22157813774626,
images\LIP_CFD_BM_234_172_N.png,0,49,49,49,,,,,,,,,,,,,,,,,,,,,,,,,,,,,,,,,,,169.2256481000004,169.52275819999977,169.52275819999977,169.52275819999977,169.52275819999977,169.52275819999977,0.30687699999998586,48.333333333333336,0.9396798000007038,-0.049074074074074076,-0.38333333333333336,1,0,0,NextBu,51.48148148148148,1.8239122999993924,0.8445591486432569,171.3742129000002,172.22582789999979,,,,,2023-04-07_21h51.21.854,FaceAttractiveness,2022.2.5,140.22157813774626,
images\LIP_CFD_LF_224_176_N.png,0,50,50,50,,,,,,,,,,,,,,,,,,,,,,,,,,,,,,,,,,,172.22582789999979,172.5236746999999,172.5236746999999,172.5236746999999,172.5236746999999,172.5236746999999,0.30793480000011186,34.351851851851855,0.964953599999717,-0.003703703703703704,-0.37777777777777777,1,0,0,NextBu,51.75925925925926,1.6881788999999117,0.9076931740085383,174.2216159999998,175.13460550000036,,,,,2023-04-07_21h51.21.854,FaceAttractiveness,2022.2.5,140.22157813774626,
images\LIP_CFD_LM_201_057_N.png,0,51,51,51,,,,,,,,,,,,,,,,,,,,,,,,,,,,,,,,,,,175.13460550000036,175.43163449999975,175.43163449999975,175.43163449999975,175.43163449999975,175.43163449999975,0.3066306999999142,41.11111111111111,1.0694908999994368,0.020370370370370372,-0.38333333333333336,1,0,0,NextBu,56.851851851851855,2.5394250999997894,0.5885716098914704,178.11741470000015,178.7109935999997,,,,,2023-04-07_21h51.21.854,FaceAttractiveness,2022.2.5,140.22157813774626,
images\LIP_CFD_LM_203_026_N.png,0,52,52,52,,,,,,,,,,,,,,,,,,,,,,,,,,,,,,,,,,,178.7109935999997,179.0091335999996,179.0091335999996,179.0091335999996,179.0091335999996,179.0091335999996,0.3078553000004831,45.55555555555556,1.2780035999994652,0.05462962962962963,-0.40555555555555556,1,0,0,NextBu,57.407407407407405,2.0535917999995945,0.6534952751251852,181.10324180000043,181.75978980000036,,,,,2023-04-07_21h51.21.854,FaceAttractiveness,2022.2.5,140.22157813774626,
images\LIP_CFD_WF_002_004_N.png,0,53,53,53,,,,,,,,,,,,,,,,,,,,,,,,,,,,,,,,,,,181.75978980000036,182.05722779999996,182.05722779999996,182.05722779999996,182.05722779999996,182.05722779999996,0.30725540000003093,50.0,1.2191807999997764,0.053703703703703705,-0.4185185185185185,1,0,0,NextBu,58.7037037037037,2.060914199999388,0.8151838912357295,184.20699820000027,185.03009139999995,,,,,2023-04-07_21h51.21.854,FaceAttractiveness,2022.2.5,140.22157813774626,
images\LIP_CFD_WF_200_099_N.png,0,54,54,54,,,,,,,,,,,,,,,,,,,,,,,,,,,,,,,,,,,185.03009139999995,185.3277006999997,185.3277006999997,185.3277006999997,185.3277006999997,185.3277006999997,0.3072909000002255,45.46296296296296,0.8705466999999771,-0.006481481481481481,-0.3907407407407407,1,0,0,NextBu,54.53703703703704,1.4985523000004832,0.7290369849181082,186.8669087999997,187.59954039999957,,,,,2023-04-07_21h51.21.854,FaceAttractiveness,2022.2.5,140.22157813774626,
images\LIP_CFD_WF_250_167_N.png,0,55,55,55,,,,,,,,,,,,,,,,,,,,,,,,,,,,,,,,,,,187.59954039999957,187.89662419999968,187.89662419999968,187.89662419999968,187.89662419999968,187.89662419999968,0.2999103999991348,46.85185185185185,0.9620171999995364,0.025,-0.3990740740740741,1,0,0,NextBu,55.092592592592595,1.6418272999999317,0.8144333130277923,189.55454610000015,190.38054199999988,,,,,2023-04-07_21h51.21.854,FaceAttractiveness,2022.2.5,140.22157813774626,
images\LIP_CFD_WM_212_097_N.png,0,56,56,56,,,,,,,,,,,,,,,,,,,,,,,,,,,,,,,,,,,190.38054199999988,190.6752330999998,190.6752330999998,190.6752330999998,190.6752330999998,190.6752330999998,0.3069594999997207,44.351851851851855,1.0341863000003286,0.005555555555555556,-0.387037037037037,1,0,0,NextBu,52.87037037037037,2.2952412000004188,0.7123649957197592,192.94305939999958,193.66184020000037,,,,,2023-04-07_21h51.21.854,FaceAttractiveness,2022.2.5,140.22157813774626,
images\NASALTIP_006_M_F_N_A.png,0,57,57,57,,,,,,,,,,,,,,,,,,,,,,,,,,,,,,,,,,,193.66184020000037,193.95916269999998,193.95916269999998,193.95916269999998,193.95916269999998,193.95916269999998,0.30706089999966935,46.111111111111114,0.7488159000004089,0.026851851851851852,-0.41388888888888886,1,0,0,NextBu,56.481481481481474,1.4088160999999673,0.6077148716835994,195.3311008999999,195.94605219999994,,,,,2023-04-07_21h51.21.854,FaceAttractiveness,2022.2.5,140.22157813774626,
images\NASALTIP_035_M_F_N_A.png,0,58,58,58,,,,,,,,,,,,,,,,,,,,,,,,,,,,,,,,,,,195.94605219999994,196.24395800000002,196.24395800000002,196.24395800000002,196.24395800000002,196.24395800000002,0.30739259999973,57.407407407407405,1.0154873999999836,0.01574074074074074,-0.37407407407407406,1,0,0,NextBu,59.351851851851855,1.6098036000003049,0.7603089755271188,197.8045886,198.57203630000004,,,,,2023-04-07_21h51.21.854,FaceAttractiveness,2022.2.5,140.22157813774626,
images\NASALTIP_087_M_M_N_A.png,0,59,59,59,,,,,,,,,,,,,,,,,,,,,,,,,,,,,,,,,,,198.57203630000004,198.86903970000003,198.86903970000003,198.86903970000003,198.86903970000003,198.86903970000003,0.3067691999995077,53.333333333333336,0.9455151000001933,0.02962962962962963,-0.39814814814814814,1,0,0,NextBu,56.111111111111114,1.5895693999991636,0.6138564108267994,200.43614909999997,201.05703389999962,,,,,2023-04-07_21h51.21.854,FaceAttractiveness,2022.2.5,140.22157813774626,
images\NASALTIP_136_M_M_N_A.png,0,60,60,60,,,,,,,,,,,,,,,,,,,,,,,,,,,,,,,,,,,201.05703389999962,201.3583268000002,201.3583268000002,201.3583268000002,201.3583268000002,201.3583268000002,0.3107644000001528,48.42592592592593,0.9122883000000002,0.013888888888888888,-0.39351851851851855,1,0,0,NextBu,53.7962962962963,1.4719166000004407,0.6033283691301428,202.79065770000034,203.39916230000017,,,,,2023-04-07_21h51.21.854,FaceAttractiveness,2022.2.5,140.22157813774626,
images\NASALTIP_CFD_AF_231_357_N.png,0,61,61,61,,,,,,,,,,,,,,,,,,,,,,,,,,,,,,,,,,,203.39916230000017,203.6953999999996,203.6953999999996,203.6953999999996,203.6953999999996,203.6953999999996,0.30708400000003166,54.72222222222223,0.9178203999999823,0.04722222222222222,-0.3787037037037037,1,0,0,NextBu,54.166666666666664,1.8286724999998114,0.9492838335990859,205.52450190000036,206.48157429999992,,,,,2023-04-07_21h51.21.854,FaceAttractiveness,2022.2.5,140.22157813774626,
images\NASALTIP_CFD_AF_237_223_N.png,0,62,62,62,,,,,,,,,,,,,,,,,,,,,,,,,,,,,,,,,,,206.48157429999992,206.78094679999958,206.78094679999958,206.78094679999958,206.78094679999958,206.78094679999958,0.3092309000003297,47.22222222222222,0.9134790999996767,0.019444444444444445,-0.37962962962962965,1,0,0,NextBu,56.94444444444444,1.599126499999329,0.7108502652888018,208.34551900000042,209.0648645000001,,,,,2023-04-07_21h51.21.854,FaceAttractiveness,2022.2.5,140.22157813774626,
images\NASALTIP_CFD_AF_245_143_N.png,0,63,63,63,,,,,,,,,,,,,,,,,,,,,,,,,,,,,,,,,,,209.0648645000001,209.36148520000006,209.36148520000006,209.36148520000006,209.36148520000006,209.36148520000006,0.3064952999993693,44.25925925925926,1.0998206000003847,0.018518518518518517,-0.4148148148148148,1,0,0,NextBu,54.35185185185185,1.7472072999999,0.5773382678169559,211.09637209999983,211.68215959999998,,,,,2023-04-07_21h51.21.854,FaceAttractiveness,2022.2.5,140.22157813774626,
images\NASALTIP_CFD_AM_233_236_N.png,0,64,64,64,,,,,,,,,,,,,,,,,,,,,,,,,,,,,,,,,,,211.68215959999998,211.98014220000005,211.98014220000005,211.98014220000005,211.98014220000005,211.98014220000005,0.30750499999976455,51.20370370370371,1.011478000000352,0.012037037037037037,-0.42962962962962964,1,0,0,NextBu,55.74074074074073,1.6998070999998163,0.9558328990766168,213.67888870000024,214.64120509999975,,,,,2023-04-07_21h51.21.854,FaceAttractiveness,2022.2.5,140.22157813774626,
images\NASALTIP_CFD_BF_214_308_N.png,0,65,65,65,,,,,,,,,,,,,,,,,,,,,,,,,,,,,,,,,,,214.64120509999975,214.93807490000017,214.93807490000017,214.93807490000017,214.93807490000017,214.93807490000017,0.30696220000027097,50.83333333333333,0.7240719999999783,0.026851851851851852,-0.41203703703703703,1,0,0,NextBu,55.46296296296296,1.4409601999996084,0.5480065590914207,216.33849540000028,216.89100859999962,,,,,2023-04-07_21h51.21.854,FaceAttractiveness,2022.2.5,140.22157813774626,
images\NASALTIP_CFD_BF_224_002_N.png,0,66,66,66,,,,,,,,,,,,,,,,,,,,,,,,,,,,,,,,,,,216.89100859999962,217.18713519999983,217.18713519999983,217.18713519999983,217.18713519999983,217.18713519999983,0.3058799000000363,54.074074074074076,0.9796387999995204,-0.018518518518518517,-0.4046296296296296,1,0,0,NextBu,53.05555555555556,1.719999099999768,0.8643503505709147,218.97033379999993,219.84193380000033,,,,,2023-04-07_21h51.21.854,FaceAttractiveness,2022.2.5,140.22157813774626,
images\NASALTIP_CFD_BM_213_134_N.png,0,67,67,67,,,,,,,,,,,,,,,,,,,,,,,,,,,,,,,,,,,219.84193380000033,220.14025289999972,220.14025289999972,220.14025289999972,220.14025289999972,220.14025289999972,0.3078072999996948,49.72222222222222,0.6917891999992207,0.012962962962962963,-0.38425925925925924,1,0,0,NextBu,50.83333333333333,1.9495746000002327,0.6040516391278885,222.06915690000005,222.67581210000026,,,,,2023-04-07_21h51.21.854,FaceAttractiveness,2022.2.5,140.22157813774626,
images\NASALTIP_CFD_BM_234_172_N.png,0,68,68,68,,,,,,,,,,,,,,,,,,,,,,,,,,,,,,,,,,,222.67581210000026,222.9730880999996,222.9730880999996,222.9730880999996,222.9730880999996,222.9730880999996,0.30726599999979953,45.55555555555556,0.7377404999997452,0.025,-0.39537037037037037,1,0,0,NextBu,53.05555555555556,1.3100667999997313,0.5920626063739618,224.3038317999999,224.90456559999984,,,,,2023-04-07_21h51.21.854,FaceAttractiveness,2022.2.5,140.22157813774626,
images\NASALTIP_CFD_LF_224_176_N.png,0,69,69,69,,,,,,,,,,,,,,,,,,,,,,,,,,,,,,,,,,,224.90456559999984,225.20276319999994,225.20276319999994,225.20276319999994,225.20276319999994,225.20276319999994,0.3079773000008572,54.44444444444444,0.8645784999998796,0.027777777777777776,-0.4148148148148148,1,0,0,NextBu,55.833333333333336,1.3807440999999017,0.6544408439147273,226.58794000000034,227.2445270999997,,,,,2023-04-07_21h51.21.854,FaceAttractiveness,2022.2.5,140.22157813774626,
images\NASALTIP_CFD_LM_201_057_N.png,0,70,70,70,,,,,,,,,,,,,,,,,,,,,,,,,,,,,,,,,,,227.2445270999997,227.54268310000043,227.54268310000043,227.54268310000043,227.54268310000043,227.54268310000043,0.30770419999953447,53.51851851851852,0.8303802999998879,0.014814814814814815,-0.4046296296296296,1,0,0,NextBu,57.03703703703704,1.379695399999946,0.9944392652787988,228.93513499999972,229.93367839999974,,,,,2023-04-07_21h51.21.854,FaceAttractiveness,2022.2.5,140.22157813774626,
images\NASALTIP_CFD_LM_203_026_N.png,0,71,71,71,,,,,,,,,,,,,,,,,,,,,,,,,,,,,,,,,,,229.93367839999974,230.22948470000028,230.22948470000028,230.22948470000028,230.22948470000028,230.22948470000028,0.3069042000006448,43.05555555555556,0.9062225000006947,0.028703703703703703,-0.375,1,0,0,NextBu,54.81481481481482,1.7394064000000071,0.796822558281213,231.92042500000025,232.72355719999996,,,,,2023-04-07_21h51.21.854,FaceAttractiveness,2022.2.5,140.22157813774626,
images\NASALTIP_CFD_WF_002_004_N.png,0,72,72,72,,,,,,,,,,,,,,,,,,,,,,,,,,,,,,,,,,,232.72355719999996,233.02115479999975,233.02115479999975,233.02115479999975,233.02115479999975,233.02115479999975,0.3075189000001046,49.72222222222222,0.7668183999994653,0.028703703703703703,-0.39444444444444443,1,0,0,NextBu,53.98148148148149,1.4559192000006078,0.9611780018476047,234.44928489999984,235.41904859999977,,,,,2023-04-07_21h51.21.854,FaceAttractiveness,2022.2.5,140.22157813774626,
images\NASALTIP_CFD_WF_200_099_N.png,0,73,73,73,,,,,,,,,,,,,,,,,,,,,,,,,,,,,,,,,,,235.41904859999977,235.7174530000002,235.7174530000002,235.7174530000002,235.7174530000002,235.7174530000002,0.30928120000044146,41.11111111111111,1.1183213000003889,0.0,-0.362962962962963,1,0,0,NextBu,53.51851851851852,1.8413241999996899,0.9879039741408282,237.5948515,238.59157190000042,,,,,2023-04-07_21h51.21.854,FaceAttractiveness,2022.2.5,140.22157813774626,
images\NASALTIP_CFD_WF_250_167_N.png,0,74,74,74,,,,,,,,,,,,,,,,,,,,,,,,,,,,,,,,,,,238.59157190000042,238.8887021999999,238.8887021999999,238.8887021999999,238.8887021999999,238.8887021999999,0.30687480000051437,43.148148148148145,0.8684091999994052,0.012037037037037037,-0.4027777777777778,1,0,0,NextBu,56.018518518518526,1.5116484000000128,0.5889280728986401,240.5031310000004,241.10161760000028,,,,,2023-04-07_21h51.21.854,FaceAttractiveness,2022.2.5,140.22157813774626,
images\NASALTIP_CFD_WM_212_097_N.png,0,75,75,75,,,,,,,,,,,,,,,,,,,,,,,,,,,,,,,,,,,241.10161760000028,241.39561810000032,241.39561810000032,241.39561810000032,241.39561810000032,241.39561810000032,0.30648199999995995,38.425925925925924,0.8826770000005126,-0.012037037037037037,-0.40185185185185185,1,0,0,NextBu,54.629629629629626,1.6422701000001325,0.8803644792635825,243.10114179999982,243.98892330000035,,,,,2023-04-07_21h51.21.854,FaceAttractiveness,2022.2.5,140.22157813774626,
images\RCHEEK_006_M_F_N_A.png,0,76,76,76,,,,,,,,,,,,,,,,,,,,,,,,,,,,,,,,,,,243.98892330000035,244.27862499999992,244.27862499999992,244.27862499999992,244.27862499999992,244.27862499999992,0.3015608000005159,42.22222222222222,0.8194990000001781,0.049074074074074076,-0.41759259259259257,1,0,0,NextBu,55.833333333333336,2.6491823999995177,0.7680578940532377,246.92873450000025,247.70177069999954,,,,,2023-04-07_21h51.21.854,FaceAttractiveness,2022.2.5,140.22157813774626,
images\RCHEEK_035_M_F_N_A.png,0,77,77,77,,,,,,,,,,,,,,,,,,,,,,,,,,,,,,,,,,,247.70177069999954,248.0003015000002,248.0003015000002,248.0003015000002,248.0003015000002,248.0003015000002,0.3079785999998421,44.166666666666664,1.0535751999996137,0.053703703703703705,-0.3851851851851852,1,0,0,NextBu,56.75925925925927,1.6549128000006021,0.9394024838093734,249.65952490000018,250.60465639999984,,,,,2023-04-07_21h51.21.854,FaceAttractiveness,2022.2.5,140.22157813774626,
images\RCHEEK_087_M_M_N_A.png,0,78,78,78,,,,,,,,,,,,,,,,,,,,,,,,,,,,,,,,,,,250.60465639999984,250.9052270000002,250.9052270000002,250.9052270000002,250.9052270000002,250.9052270000002,0.3098021999994671,45.55555555555556,0.9006169000003865,0.018518518518518517,-0.3925925925925926,1,0,0,NextBu,55.74074074074073,1.4955761000001075,0.833724126584239,252.36562369999956,253.20166960000006,,,,,2023-04-07_21h51.21.854,FaceAttractiveness,2022.2.5,140.22157813774626,
images\RCHEEK_136_M_M_N_A.png,0,79,79,79,,,,,,,,,,,,,,,,,,,,,,,,,,,,,,,,,,,253.20166960000006,253.4932829999998,253.4932829999998,253.4932829999998,253.4932829999998,253.4932829999998,0.30111110000052577,43.51851851851852,0.9274372000008952,-0.013888888888888888,-0.38425925925925924,1,0,0,NextBu,50.09259259259259,2.3831101999994644,0.7627516167221375,255.9345585000001,256.70258399999966,,,,,2023-04-07_21h51.21.854,FaceAttractiveness,2022.2.5,140.22157813774626,
images\RCHEEK_CFD_AF_231_357_N.png,0,80,80,80,,,,,,,,,,,,,,,,,,,,,,,,,,,,,,,,,,,256.70258399999966,256.99988699999994,256.99988699999994,256.99988699999994,256.99988699999994,256.99988699999994,0.3077692999995634,37.03703703703704,0.9444465000005948,-0.000925925925925926,-0.39444444444444443,1,0,0,NextBu,54.44444444444444,1.7152254000002358,0.9627753852603611,258.7408068000004,259.70982730000014,,,,,2023-04-07_21h51.21.854,FaceAttractiveness,2022.2.5,140.22157813774626,
images\RCHEEK_CFD_AF_237_223_N.png,0,81,81,81,,,,,,,,,,,,,,,,,,,,,,,,,,,,,,,,,,,259.70982730000014,260.00734190000003,260.00734190000003,260.00734190000003,260.00734190000003,260.00734190000003,0.30687940000007075,40.37037037037037,0.9828919999999925,-0.002777777777777778,-0.4046296296296296,1,0,0,NextBu,63.98148148148148,1.6712641000003714,0.8211418077321033,261.79668089999996,262.6261217000001,,,,,2023-04-07_21h51.21.854,FaceAttractiveness,2022.2.5,140.22157813774626,
images\RCHEEK_CFD_AF_245_143_N.png,0,82,82,82,,,,,,,,,,,,,,,,,,,,,,,,,,,,,,,,,,,262.6261217000001,262.9236539000003,262.9236539000003,262.9236539000003,262.9236539000003,262.9236539000003,0.30752230000052805,43.425925925925924,0.7520060999995621,0.06481481481481481,-0.43148148148148147,1,0,0,NextBu,60.92592592592593,1.3917608000001565,0.5857103752475065,264.3444042000001,264.93775019999975,,,,,2023-04-07_21h51.21.854,FaceAttractiveness,2022.2.5,140.22157813774626,
images\RCHEEK_CFD_AM_233_236_N.png,0,83,83,83,,,,,,,,,,,,,,,,,,,,,,,,,,,,,,,,,,,264.93775019999975,265.2365152000002,265.2365152000002,265.2365152000002,265.2365152000002,265.2365152000002,0.30805059999966034,41.66666666666667,1.007832100000087,0.04351851851851852,-0.42685185185185187,1,0,0,NextBu,62.22222222222222,1.913416600000346,0.7716148978417559,267.16390450000017,267.9383869000003,,,,,2023-04-07_21h51.21.854,FaceAttractiveness,2022.2.5,140.22157813774626,
images\RCHEEK_CFD_BF_214_308_N.png,0,84,84,84,,,,,,,,,,,,,,,,,,,,,,,,,,,,,,,,,,,267.9383869000003,268.23489020000034,268.23489020000034,268.23489020000034,268.23489020000034,268.23489020000034,0.30666350000046805,46.94444444444444,0.7756938000002265,-0.000925925925925926,-0.4212962962962963,1,0,0,NextBu,66.48148148148148,1.4732260000000679,0.7279254751020112,269.7704759999997,270.5009849999997,,,,,2023-04-07_21h51.21.854,FaceAttractiveness,2022.2.5,140.22157813774626,
images\RCHEEK_CFD_BF_224_002_N.png,0,85,85,85,,,,,,,,,,,,,,,,,,,,,,,,,,,,,,,,,,,270.5009849999997,270.7977842999999,270.7977842999999,270.7977842999999,270.7977842999999,270.7977842999999,0.3070469000003868,46.75925925925926,0.8776007999995272,0.05092592592592592,-0.3972222222222222,1,0,0,NextBu,61.85185185185185,1.944140900000093,0.8553355396575137,272.7260048999997,273.58330750000005,,,,,2023-04-07_21h51.21.854,FaceAttractiveness,2022.2.5,140.22157813774626,
images\RCHEEK_CFD_BM_213_134_N.png,0,86,86,86,,,,,,,,,,,,,,,,,,,,,,,,,,,,,,,,,,,273.58330750000005,273.8811631999997,273.8811631999997,273.8811631999997,273.8811631999997,273.8811631999997,0.30722700000023906,50.55555555555556,0.8893938999999591,0.06666666666666667,-0.40555555555555556,1,0,0,NextBu,55.74074074074073,1.5809225000002698,0.7210200970769023,275.41438860000017,276.138516,,,,,2023-04-07_21h51.21.854,FaceAttractiveness,2022.2.5,140.22157813774626,
images\RCHEEK_CFD_BM_234_172_N.png,0,87,87,87,,,,,,,,,,,,,,,,,,,,,,,,,,,,,,,,,,,276.138516,276.4371027999996,276.4371027999996,276.4371027999996,276.4371027999996,276.4371027999996,0.3073649000007208,44.62962962962963,0.8958077999996021,0.005555555555555556,-0.3907407407407407,1,0,0,NextBu,59.81481481481481,1.5602084000001923,0.9211590537174295,278.4354407000001,279.36101599999984,,,,,2023-04-07_21h51.21.854,FaceAttractiveness,2022.2.5,140.22157813774626,
images\RCHEEK_CFD_LF_224_176_N.png,0,88,88,88,,,,,,,,,,,,,,,,,,,,,,,,,,,,,,,,,,,279.36101599999984,279.6567533999996,279.6567533999996,279.6567533999996,279.6567533999996,279.6567533999996,0.3052421000002141,41.2037037037037,0.8893968000002133,0.004629629629629629,-0.40555555555555556,1,0,0,NextBu,58.7037037037037,1.5279540000001361,0.9640484510938202,281.28906259999985,282.2567461999997,,,,,2023-04-07_21h51.21.854,FaceAttractiveness,2022.2.5,140.22157813774626,
images\RCHEEK_CFD_LM_201_057_N.png,0,89,89,89,,,,,,,,,,,,,,,,,,,,,,,,,,,,,,,,,,,282.2567461999997,282.5548563000002,282.5548563000002,282.5548563000002,282.5548563000002,282.5548563000002,0.30699509999976726,46.111111111111114,0.9655650000004243,0.040740740740740744,-0.41574074074074074,1,0,0,NextBu,63.42592592592593,1.5048545999998169,0.5463230496049134,284.0456227000004,284.59763139999995,,,,,2023-04-07_21h51.21.854,FaceAttractiveness,2022.2.5,140.22157813774626,
images\RCHEEK_CFD_LM_203_026_N.png,0,90,90,90,,,,,,,,,,,,,,,,,,,,,,,,,,,,,,,,,,,284.59763139999995,284.8887814999998,284.8887814999998,284.8887814999998,284.8887814999998,284.8887814999998,0.3011272000003373,45.370370370370374,1.777862300000379,0.05092592592592592,-0.3962962962962963,1,0,0,NextBu,58.333333333333336,2.490370200000143,0.555098925587346,287.37913039999967,287.93783520000034,,,,,2023-04-07_21h51.21.854,FaceAttractiveness,2022.2.5,140.22157813774626,
images\RCHEEK_CFD_WF_002_004_N.png,0,91,91,91,,,,,,,,,,,,,,,,,,,,,,,,,,,,,,,,,,,287.93783520000034,288.2381341,288.2381341,288.2381341,288.2381341,288.2381341,0.3097268999999869,44.62962962962963,0.8294252999994569,0.002777777777777778,-0.41944444444444445,1,0,0,NextBu,59.90740740740741,1.4238655000008293,0.6993785070096514,289.68427020000036,290.3889294999999,,,,,2023-04-07_21h51.21.854,FaceAttractiveness,2022.2.5,140.22157813774626,
images\RCHEEK_CFD_WF_200_099_N.png,0,92,92,92,,,,,,,,,,,,,,,,,,,,,,,,,,,,,,,,,,,290.3889294999999,290.6861657999998,290.6861657999998,290.6861657999998,290.6861657999998,290.6861657999998,0.307056200000261,41.2037037037037,1.3541656000006697,0.06574074074074074,-0.4074074074074074,1,0,0,NextBu,57.22222222222222,2.0891392999992604,0.500527673908931,292.89246379999986,293.3960874000004,,,,,2023-04-07_21h51.21.854,FaceAttractiveness,2022.2.5,140.22157813774626,
images\RCHEEK_CFD_WF_250_167_N.png,0,93,93,93,,,,,,,,,,,,,,,,,,,,,,,,,,,,,,,,,,,293.3960874000004,293.69244270000036,293.69244270000036,293.69244270000036,293.69244270000036,293.69244270000036,0.3060482000000775,45.092592592592595,1.8121557000004032,0.09814814814814815,-0.4,1,0,0,NextBu,66.94444444444446,2.9690466000001834,0.5667008440824776,296.6632319,297.23748439999963,,,,,2023-04-07_21h51.21.854,FaceAttractiveness,2022.2.5,140.22157813774626,
images\RCHEEK_CFD_WM_212_097_N.png,0,94,94,94,,,,,,,,,,,,,,,,,,,,,,,,,,,,,,,,,,,297.23748439999963,297.53378729999986,297.53378729999986,297.53378729999986,297.53378729999986,297.53378729999986,0.30732309999984864,40.0,0.7095731999997952,0.05555555555555555,-0.3925925925925926,1,0,0,NextBu,63.51851851851852,1.2222630000005665,0.8845096465301179,298.7473395999996,299.63828620000004,,,,,2023-04-07_21h51.21.854,FaceAttractiveness,2022.2.5,140.22157813774626,
images\FOREHEAD_006_M_F_N_A.png,1,0,95,0,,,,,,,,,,,,,,,,,,,,,,,,,,,,,,,,,,,299.63828620000004,299.93587039999966,299.93587039999966,299.93587039999966,299.93587039999966,299.93587039999966,0.3066385000001901,39.44444444444444,0.9378418000005695,0.027777777777777776,-0.41388888888888886,1,0,0,NextBu,67.12962962962963,1.7406334999996034,0.8175345590137998,301.7669337999996,302.58989310000015,,,,,2023-04-07_21h51.21.854,FaceAttractiveness,2022.2.5,140.22157813774626,
images\FOREHEAD_035_M_F_N_A.png,1,1,96,1,,,,,,,,,,,,,,,,,,,,,,,,,,,,,,,,,,,302.58989310000015,302.8882698999996,302.8882698999996,302.8882698999996,302.8882698999996,302.8882698999996,0.30806810000012774,44.53703703703704,1.2533439999997427,0.03148148148148148,-0.4305555555555556,1,0,0,NextBu,58.05555555555556,2.5824539000004734,0.7813074292991027,305.44079950000014,306.2281635999998,,,,,2023-04-07_21h51.21.854,FaceAttractiveness,2022.2.5,140.22157813774626,
images\FOREHEAD_087_M_M_N_A.png,1,2,97,2,,,,,,,,,,,,,,,,,,,,,,,,,,,,,,,,,,,306.2281635999998,306.52554320000036,306.52554320000036,306.52554320000036,306.52554320000036,306.52554320000036,0.30695009999999456,39.44444444444444,1.0508167999996658,0.023148148148148147,-0.41574074074074074,1,0,0,NextBu,58.611111111111114,1.7840500000002066,0.6562563780075162,308.29392499999994,308.95707029999994,,,,,2023-04-07_21h51.21.854,FaceAttractiveness,2022.2.5,140.22157813774626,
images\FOREHEAD_136_M_M_N_A.png,1,3,98,3,,,,,,,,,,,,,,,,,,,,,,,,,,,,,,,,,,,308.95707029999994,309.2555812999999,309.2555812999999,309.2555812999999,309.2555812999999,309.2555812999999,0.3071821000003183,37.68518518518519,0.9863481000002139,0.012037037037037037,-0.4064814814814815,1,0,0,NextBu,55.74074074074073,2.021780299999591,0.8295756363106221,311.3716948000001,312.20994599999995,,,,,2023-04-07_21h51.21.854,FaceAttractiveness,2022.2.5,140.22157813774626,
images\FOREHEAD_CFD_AF_231_357_N.png,1,4,99,4,,,,,,,,,,,,,,,,,,,,,,,,,,,,,,,,,,,312.20994599999995,312.50582080000004,312.50582080000004,312.50582080000004,312.50582080000004,312.50582080000004,0.30719439999938913,40.0,1.0468205999995916,0.020370370370370372,-0.36574074074074076,1,0,0,NextBu,59.351851851851855,1.69019870000011,0.8056114901574918,314.17651380000007,314.9854237999998,,,,,2023-04-07_21h51.21.854,FaceAttractiveness,2022.2.5,140.22157813774626,
images\FOREHEAD_CFD_AF_237_223_N.png,1,5,100,5,,,,,,,,,,,,,,,,,,,,,,,,,,,,,,,,,,,314.9854237999998,315.28318339999987,315.28318339999987,315.28318339999987,315.28318339999987,315.28318339999987,0.30728559999988647,46.94444444444444,1.6571405000004233,-0.021296296296296296,-0.38425925925925924,1,0,0,NextBu,61.75925925925926,2.45765609999944,0.7852234796408663,317.71124409999993,318.4986538000003,,,,,2023-04-07_21h51.21.854,FaceAttractiveness,2022.2.5,140.22157813774626,
images\FOREHEAD_CFD_AF_245_143_N.png,1,6,101,6,,,,,,,,,,,,,,,,,,,,,,,,,,,,,,,,,,,318.4986538000003,318.7962889999999,318.7962889999999,318.7962889999999,318.7962889999999,318.7962889999999,0.3069876999998087,41.66666666666667,1.1208285000002434,0.026851851851851852,-0.4064814814814815,1,0,0,NextBu,60.55555555555555,1.7916705000006914,0.8557075671086822,320.55835039999965,321.4160316999996,,,,,2023-04-07_21h51.21.854,FaceAttractiveness,2022.2.5,140.22157813774626,
images\FOREHEAD_CFD_AM_233_236_N.png,1,7,102,7,,,,,,,,,,,,,,,,,,,,,,,,,,,,,,,,,,,321.4160316999996,321.71367159999954,321.71367159999954,321.71367159999954,321.71367159999954,321.71367159999954,0.30706519999966986,41.94444444444444,1.0879052000000229,-0.006481481481481481,-0.4305555555555556,1,0,0,NextBu,57.12962962962963,1.6890881999997873,0.5337887809886411,323.49711060000027,324.0349704999999,,,,,2023-04-07_21h51.21.854,FaceAttractiveness,2022.2.5,140.22157813774626,
images\FOREHEAD_CFD_BF_214_308_N.png,1,8,103,8,,,,,,,,,,,,,,,,,,,,,,,,,,,,,,,,,,,324.0349704999999,324.3259430999997,324.3259430999997,324.3259430999997,324.3259430999997,324.3259430999997,0.30185979999987467,42.96296296296296,2.010770799999591,0.044444444444444446,-0.37407407407407406,1,0,0,NextBu,58.7037037037037,2.6361111999995046,0.9539011134155051,327.1896539999998,328.1530117000002,,,,,2023-04-07_21h51.21.854,FaceAttractiveness,2022.2.5,140.22157813774626,
images\FOREHEAD_CFD_BF_224_002_N.png,1,9,104,9,,,,,,,,,,,,,,,,,,,,,,,,,,,,,,,,,,,328.1530117000002,328.4499794000003,328.4499794000003,328.4499794000003,328.4499794000003,328.4499794000003,0.30798460000005434,55.37037037037037,1.0930982999998378,0.01574074074074074,-0.40185185185185185,1,0,0,NextBu,57.31481481481482,1.8726949000001696,0.8198505704525769,330.3497318999998,331.17235939999955,,,,,2023-04-07_21h51.21.854,FaceAttractiveness,2022.2.5,140.22157813774626,
images\FOREHEAD_CFD_BM_213_134_N.png,1,10,105,10,,,,,,,,,,,,,,,,,,,,,,,,,,,,,,,,,,,331.17235939999955,331.4704676000001,331.4704676000001,331.4704676000001,331.4704676000001,331.4704676000001,0.30668879999939236,53.51851851851852,0.8679548999998588,-0.008333333333333333,-0.4083333333333333,1,0,0,NextBu,52.03703703703704,2.560978000000432,0.9357395393107224,333.99472830000013,334.9357791000002,,,,,2023-04-07_21h51.21.854,FaceAttractiveness,2022.2.5,140.22157813774626,
images\FOREHEAD_CFD_BM_234_172_N.png,1,11,106,11,,,,,,,,,,,,,,,,,,,,,,,,,,,,,,,,,,,334.9357791000002,335.2352315999997,335.2352315999997,335.2352315999997,335.2352315999997,335.2352315999997,0.30876089999947,49.166666666666664,0.8522585000000618,0.025925925925925925,-0.4074074074074074,1,0,0,NextBu,55.092592592592595,1.7001890000001367,0.5167770450244618,336.9328929000003,337.4567638999997,,,,,2023-04-07_21h51.21.854,FaceAttractiveness,2022.2.5,140.22157813774626,
images\FOREHEAD_CFD_LF_224_176_N.png,1,12,107,12,,,,,,,,,,,,,,,,,,,,,,,,,,,,,,,,,,,337.4567638999997,337.7569610999999,337.7569610999999,337.7569610999999,337.7569610999999,337.7569610999999,0.3091679999997723,54.53703703703704,1.004330600000685,-0.012962962962962963,-0.4046296296296296,1,0,0,NextBu,54.35185185185185,2.0966433000003235,0.6725441976030899,339.8693014999999,340.54749600000014,,,,,2023-04-07_21h51.21.854,FaceAttractiveness,2022.2.5,140.22157813774626,
images\FOREHEAD_CFD_LM_201_057_N.png,1,13,108,13,,,,,,,,,,,,,,,,,,,,,,,,,,,,,,,,,,,340.54749600000014,340.8446329999997,340.8446329999997,340.8446329999997,340.8446329999997,340.8446329999997,0.30690020000020013,57.03703703703704,0.7736660999999003,-0.011111111111111112,-0.4101851851851852,1,0,0,NextBu,54.72222222222223,1.8871678000004977,0.7478353738077237,342.7871382000003,343.5398890999995,,,,,2023-04-07_21h51.21.854,FaceAttractiveness,2022.2.5,140.22157813774626,
images\FOREHEAD_CFD_LM_203_026_N.png,1,14,109,14,,,,,,,,,,,,,,,,,,,,,,,,,,,,,,,,,,,343.5398890999995,343.83856130000004,343.83856130000004,343.83856130000004,343.83856130000004,343.83856130000004,0.30761880000045494,60.55555555555555,0.7570420000001832,0.041666666666666664,-0.3787037037037037,1,0,0,NextBu,56.2962962962963,1.479065399999854,0.5618753555826994,345.2789617999997,345.8458579999997,,,,,2023-04-07_21h51.21.854,FaceAttractiveness,2022.2.5,140.22157813774626,
images\FOREHEAD_CFD_WF_002_004_N.png,1,15,110,15,,,,,,,,,,,,,,,,,,,,,,,,,,,,,,,,,,,345.8458579999997,346.1439091000002,346.1439091000002,346.1439091000002,346.1439091000002,346.1439091000002,0.3075810000000274,50.55555555555556,0.811404400000356,0.03888888888888889,-0.37962962962962965,1,0,0,NextBu,56.018518518518526,1.437364599999455,0.8499413041327126,347.5808530000004,348.43564869999955,,,,,2023-04-07_21h51.21.854,FaceAttractiveness,2022.2.5,140.22157813774626,
images\FOREHEAD_CFD_WF_200_099_N.png,1,16,111,16,,,,,,,,,,,,,,,,,,,,,,,,,,,,,,,,,,,348.43564869999955,348.7335353999997,348.7335353999997,348.7335353999997,348.7335353999997,348.7335353999997,0.3073673000008057,47.40740740740741,0.7393966999998156,0.04351851851851852,-0.37407407407407406,1,0,0,NextBu,54.72222222222223,1.429070899999715,0.9113967836789156,350.14652529999967,351.06047709999984,,,,,2023-04-07_21h51.21.854,FaceAttractiveness,2022.2.5,140.22157813774626,
images\FOREHEAD_CFD_WF_250_167_N.png,1,17,112,17,,,,,,,,,,,,,,,,,,,,,,,,,,,,,,,,,,,351.06047709999984,351.3594192999999,351.3594192999999,351.3594192999999,351.3594192999999,351.3594192999999,0.307752800000344,53.24074074074075,0.8580417000002853,0.005555555555555556,-0.3824074074074074,1,0,0,NextBu,56.574074074074076,1.5625018999999156,0.6255771494862356,352.93950289999975,353.57009019999987,,,,,2023-04-07_21h51.21.854,FaceAttractiveness,2022.2.5,140.22157813774626,
images\FOREHEAD_CFD_WM_212_097_N.png,1,18,113,18,,,,,,,,,,,,,,,,,,,,,,,,,,,,,,,,,,,353.57009019999987,353.8659754999999,353.8659754999999,353.8659754999999,353.8659754999999,353.8659754999999,0.3079139999999825,42.129629629629626,0.9308402999995451,-0.012037037037037037,-0.4111111111111111,1,0,0,NextBu,55.833333333333336,1.5581460999992487,0.7051463238079945,355.4524373000004,356.16483059999973,,,,,2023-04-07_21h51.21.854,FaceAttractiveness,2022.2.5,140.22157813774626,
images\LCHEEK_006_M_F_N_A.png,1,19,114,19,,,,,,,,,,,,,,,,,,,,,,,,,,,,,,,,,,,356.16483059999973,356.46257849999984,356.46257849999984,356.46257849999984,356.46257849999984,356.46257849999984,0.30714999999963766,42.407407407407405,1.1632258999998157,0.02962962962962963,-0.4046296296296296,1,0,0,NextBu,60.27777777777777,1.6591697999992903,0.8391534378233481,358.22388219999993,359.06729650000034,,,,,2023-04-07_21h51.21.854,FaceAttractiveness,2022.2.5,140.22157813774626,
images\LCHEEK_035_M_F_N_A.png,1,20,115,20,,,,,,,,,,,,,,,,,,,,,,,,,,,,,,,,,,,359.06729650000034,359.35959209999965,359.35959209999965,359.35959209999965,359.35959209999965,359.35959209999965,0.3014524000000165,44.25925925925926,0.9141059000003224,0.012037037037037037,-0.3925925925925926,1,0,0,NextBu,58.88888888888889,1.5952259000005142,0.6919901035264115,360.9539112000002,361.6504259000003,,,,,2023-04-07_21h51.21.854,FaceAttractiveness,2022.2.5,140.22157813774626,
images\LCHEEK_087_M_M_N_A.png,1,21,116,21,,,,,,,,,,,,,,,,,,,,,,,,,,,,,,,,,,,361.6504259000003,361.94216400000005,361.94216400000005,361.94216400000005,361.94216400000005,361.94216400000005,0.30117189999964467,40.74074074074075,0.7192950999997265,0.013888888888888888,-0.35648148148148145,1,0,0,NextBu,60.092592592592595,1.3740662999998676,0.6961522571129288,363.29356089999965,363.99077639999996,,,,,2023-04-07_21h51.21.854,FaceAttractiveness,2022.2.5,140.22157813774626,
images\LCHEEK_136_M_M_N_A.png,1,22,117,22,,,,,,,,,,,,,,,,,,,,,,,,,,,,,,,,,,,363.99077639999996,364.2889871999996,364.2889871999996,364.2889871999996,364.2889871999996,364.2889871999996,0.3069180000002234,47.22222222222222,0.7614854999992531,-0.001851851851851852,-0.3888888888888889,1,0,0,NextBu,55.648148148148145,1.3883304000000862,0.9802211836186192,365.7519322999997,366.73508839999977,,,,,2023-04-07_21h51.21.854,FaceAttractiveness,2022.2.5,140.22157813774626,
images\LCHEEK_CFD_AF_231_357_N.png,1,23,118,23,,,,,,,,,,,,,,,,,,,,,,,,,,,,,,,,,,,366.73508839999977,367.0319671999996,367.0319671999996,367.0319671999996,367.0319671999996,367.0319671999996,0.30701030000000173,42.31481481481482,0.7038722000006601,0.07314814814814814,-0.4,1,0,0,NextBu,69.35185185185185,1.2686161000001448,0.9682585529818595,368.34205329999986,369.31687859999965,,,,,2023-04-07_21h51.21.854,FaceAttractiveness,2022.2.5,140.22157813774626,
images\LCHEEK_CFD_AF_237_223_N.png,1,24,119,24,,,,,,,,,,,,,,,,,,,,,,,,,,,,,,,,,,,369.31687859999965,369.61514329999954,369.61514329999954,369.61514329999954,369.61514329999954,369.61514329999954,0.3073540999994293,42.5,0.7172073000001546,0.0787037037037037,-0.4074074074074074,1,0,0,NextBu,67.87037037037037,1.2768136999993658,0.912917362584595,370.9032765000002,371.8239119,,,,,2023-04-07_21h51.21.854,FaceAttractiveness,2022.2.5,140.22157813774626,
images\LCHEEK_CFD_AF_245_143_N.png,1,25,120,25,,,,,,,,,,,,,,,,,,,,,,,,,,,,,,,,,,,371.8239119,372.12221769999996,372.12221769999996,372.12221769999996,372.12221769999996,372.12221769999996,0.3075557000001936,38.24074074074074,0.7868575000002238,0.02962962962962963,-0.3851851851851852,1,0,0,NextBu,54.81481481481482,1.470796199999313,0.5215538886544769,373.5697796000004,374.0945018000002,,,,,2023-04-07_21h51.21.854,FaceAttractiveness,2022.2.5,140.22157813774626,
images\LCHEEK_CFD_AM_233_236_N.png,1,26,121,26,,,,,,,,,,,,,,,,,,,,,,,,,,,,,,,,,,,374.0945018000002,374.3924439000002,374.3924439000002,374.3924439000002,374.3924439000002,374.3924439000002,0.306927500000711,43.05555555555556,1.5473016999994798,-0.016666666666666666,-0.38981481481481484,1,0,0,NextBu,56.111111111111114,2.2548641000003045,0.7198888573812714,376.64746190000005,377.3738830000002,,,,,2023-04-07_21h51.21.854,FaceAttractiveness,2022.2.5,140.22157813774626,
images\LCHEEK_CFD_BF_214_308_N.png,1,27,122,27,,,,,,,,,,,,,,,,,,,,,,,,,,,,,,,,,,,377.3738830000002,377.67055059999984,377.67055059999984,377.67055059999984,377.67055059999984,377.67055059999984,0.30704530000002705,40.37037037037037,0.8715965999999753,0.012037037037037037,-0.3888888888888889,1,0,0,NextBu,60.370370370370374,1.3753141999995933,0.7443604460626316,379.0293793999999,379.77626109999983,,,,,2023-04-07_21h51.21.854,FaceAttractiveness,2022.2.5,140.22157813774626,
images\LCHEEK_CFD_BF_224_002_N.png,1,28,123,28,,,,,,,,,,,,,,,,,,,,,,,,,,,,,,,,,,,379.77626109999983,380.07297500000004,380.07297500000004,380.07297500000004,380.07297500000004,380.07297500000004,0.30627890000050684,37.40740740740741,0.8678192999996099,0.037037037037037035,-0.37962962962962965,1,0,0,NextBu,60.0,1.3733568000006926,0.5693474305459616,381.42385430000013,381.9976816999997,,,,,2023-04-07_21h51.21.854,FaceAttractiveness,2022.2.5,140.22157813774626,
images\LCHEEK_CFD_BM_213_134_N.png,1,29,124,29,,,,,,,,,,,,,,,,,,,,,,,,,,,,,,,,,,,381.9976816999997,382.29570650000005,382.29570650000005,382.29570650000005,382.29570650000005,382.29570650000005,0.30780179999965185,44.81481481481481,0.7997566000003644,-0.016666666666666666,-0.38055555555555554,1,0,0,NextBu,45.74074074074074,1.560088899999755,0.6378785170120541,383.8140835000004,384.4555440000004,,,,,2023-04-07_21h51.21.854,FaceAttractiveness,2022.2.5,140.22157813774626,
images\LCHEEK_CFD_BM_234_172_N.png,1,30,125,30,,,,,,,,,,,,,,,,,,,,,,,,,,,,,,,,,,,384.4555440000004,384.7542314000002,384.7542314000002,384.7542314000002,384.7542314000002,384.7542314000002,0.3075158999999985,54.44444444444444,0.7228629000001092,-0.021296296296296296,-0.42592592592592593,1,0,0,NextBu,41.85185185185185,1.3820798000006107,0.622122043231357,386.11243469999954,386.74112719999994,,,,,2023-04-07_21h51.21.854,FaceAttractiveness,2022.2.5,140.22157813774626,
images\LCHEEK_CFD_LF_224_176_N.png,1,31,126,31,,,,,,,,,,,,,,,,,,,,,,,,,,,,,,,,,,,386.74112719999994,387.0394626999996,387.0394626999996,387.0394626999996,387.0394626999996,387.0394626999996,0.307741999999962,57.12962962962963,1.6477616000001944,0.05,-0.39351851851851855,1,0,0,NextBu,60.092592592592595,2.190412500000093,0.7555904268808968,389.2028927000001,389.96273870000005,,,,,2023-04-07_21h51.21.854,FaceAttractiveness,2022.2.5,140.22157813774626,
images\LCHEEK_CFD_LM_201_057_N.png,1,32,127,32,,,,,,,,,,,,,,,,,,,,,,,,,,,,,,,,,,,389.96273870000005,390.26047370000015,390.26047370000015,390.26047370000015,390.26047370000015,390.26047370000015,0.3071245999999519,60.18518518518518,1.8755026999997426,0.018518518518518517,-0.3972222222222222,1,0,0,NextBu,57.407407407407405,2.5679242000005615,0.6836947963430979,392.8207771999996,393.5119701000003,,,,,2023-04-07_21h51.21.854,FaceAttractiveness,2022.2.5,140.22157813774626,
images\LCHEEK_CFD_LM_203_026_N.png,1,33,128,33,,,,,,,,,,,,,,,,,,,,,,,,,,,,,,,,,,,393.5119701000003,393.81019149999975,393.81019149999975,393.81019149999975,393.81019149999975,393.81019149999975,0.30810010000004695,52.407407407407405,0.8255469999994602,-0.001851851851851852,-0.3731481481481482,1,0,0,NextBu,56.574074074074076,1.6660443999999188,0.5618339792822815,395.43887369999993,396.00627799999984,,,,,2023-04-07_21h51.21.854,FaceAttractiveness,2022.2.5,140.22157813774626,
images\LCHEEK_CFD_WF_002_004_N.png,1,34,129,34,,,,,,,,,,,,,,,,,,,,,,,,,,,,,,,,,,,396.00627799999984,396.30288930000006,396.30288930000006,396.30288930000006,396.30288930000006,396.30288930000006,0.30713159999959316,46.111111111111114,0.8520921999997881,0.011111111111111112,-0.36203703703703705,1,0,0,NextBu,55.74074074074073,1.8988156000004892,0.5676252451127205,398.1741896000003,398.7466608000004,,,,,2023-04-07_21h51.21.854,FaceAttractiveness,2022.2.5,140.22157813774626,
images\LCHEEK_CFD_WF_200_099_N.png,1,35,130,35,,,,,,,,,,,,,,,,,,,,,,,,,,,,,,,,,,,398.7466608000004,399.0454182000003,399.0454182000003,399.0454182000003,399.0454182000003,399.0454182000003,0.307969100000264,39.44444444444444,0.8992656999998871,0.0,-0.36203703703703705,1,0,0,NextBu,53.24074074074075,1.5338110000002416,0.6308030563065345,400.58445969999957,401.2187313000004,,,,,2023-04-07_21h51.21.854,FaceAttractiveness,2022.2.5,140.22157813774626,
images\LCHEEK_CFD_WF_250_167_N.png,1,36,131,36,,,,,,,,,,,,,,,,,,,,,,,,,,,,,,,,,,,401.2187313000004,401.51200340000014,401.51200340000014,401.51200340000014,401.51200340000014,401.51200340000014,0.3026566999997158,46.48148148148148,0.816907500000525,-0.03796296296296296,-0.36666666666666664,1,0,0,NextBu,53.05555555555556,1.39331619999939,0.8172096818711609,402.87597689999984,403.70082339999954,,,,,2023-04-07_21h51.21.854,FaceAttractiveness,2022.2.5,140.22157813774626,
images\LCHEEK_CFD_WM_212_097_N.png,1,37,132,37,,,,,,,,,,,,,,,,,,,,,,,,,,,,,,,,,,,403.70082339999954,403.9965837,403.9965837,403.9965837,403.9965837,403.9965837,0.30754630000046745,44.907407407407405,0.7363476000000446,-0.05277777777777778,-0.38425925925925924,1,0,0,NextBu,42.129629629629626,1.3564694999995481,0.9782454132844871,405.3275612999996,406.3111405999998,,,,,2023-04-07_21h51.21.854,FaceAttractiveness,2022.2.5,140.22157813774626,
images\LIP_006_M_F_N_A.png,1,38,133,38,,,,,,,,,,,,,,,,,,,,,,,,,,,,,,,,,,,406.3111405999998,406.6076813999998,406.6076813999998,406.6076813999998,406.6076813999998,406.6076813999998,0.3068800999999439,41.574074074074076,0.849386400000185,-0.037037037037037035,-0.4074074074074074,1,0,0,NextBu,40.925925925925924,1.412998200000402,0.7306385498016735,408.04308130000027,408.7812127999996,,,,,2023-04-07_21h51.21.854,FaceAttractiveness,2022.2.5,140.22157813774626,
images\LIP_035_M_F_N_A.png,1,39,134,39,,,,,,,,,,,,,,,,,,,,,,,,,,,,,,,,,,,408.7812127999996,409.07943220000016,409.07943220000016,409.07943220000016,409.07943220000016,409.07943220000016,0.30746779999935825,49.351851851851855,1.0566059000002497,-0.07592592592592592,-0.44074074074074077,1,0,0,NextBu,48.7037037037037,2.283650200000011,0.6852371788045301,411.3964192000003,412.08671010000035,,,,,2023-04-07_21h51.21.854,FaceAttractiveness,2022.2.5,140.22157813774626,
images\LIP_087_M_M_N_A.png,1,40,135,40,,,,,,,,,,,,,,,,,,,,,,,,,,,,,,,,,,,412.08671010000035,412.3849909999999,412.3849909999999,412.3849909999999,412.3849909999999,412.3849909999999,0.3071053999992728,36.75925925925926,0.8159402000001137,-0.041666666666666664,-0.37407407407407406,1,0,0,NextBu,54.25925925925926,1.306826799999726,0.638390347670402,413.70218269999987,414.34315960000004,,,,,2023-04-07_21h51.21.854,FaceAttractiveness,2022.2.5,140.22157813774626,
images\LIP_136_M_M_N_A.png,1,41,136,41,,,,,,,,,,,,,,,,,,,,,,,,,,,,,,,,,,,414.34315960000004,414.64170230000036,414.64170230000036,414.64170230000036,414.64170230000036,414.64170230000036,0.30747150000024703,43.7037037037037,0.850151100000403,-0.03148148148148148,-0.3962962962962963,1,0,0,NextBu,53.61111111111111,1.348345999999765,0.5122652804891854,415.9381897000003,416.45669519999956,,,,,2023-04-07_21h51.21.854,FaceAttractiveness,2022.2.5,140.22157813774626,
images\LIP_CFD_AF_231_357_N.png,1,42,137,42,,,,,,,,,,,,,,,,,,,,,,,,,,,,,,,,,,,416.45669519999956,416.7527315999996,416.7527315999996,416.7527315999996,416.7527315999996,416.7527315999996,0.30694060000041645,35.370370370370374,0.7212571000000025,-0.004629629629629629,-0.37962962962962965,1,0,0,NextBu,53.333333333333336,1.4504865999997492,0.9298505958252321,418.30560479999986,419.2396759000003,,,,,2023-04-07_21h51.21.854,FaceAttractiveness,2022.2.5,140.22157813774626,
images\LIP_CFD_AF_237_223_N.png,1,43,138,43,,,,,,,,,,,,,,,,,,,,,,,,,,,,,,,,,,,419.2396759000003,419.5389820999999,419.5389820999999,419.5389820999999,419.5389820999999,419.5389820999999,0.2991650000003574,42.407407407407405,1.0441801999995732,0.003703703703703704,-0.37592592592592594,1,0,0,NextBu,58.14814814814815,1.7431416999997964,0.7612744491917229,421.25725299999976,422.0243499999997,,,,,2023-04-07_21h51.21.854,FaceAttractiveness,2022.2.5,140.22157813774626,
images\LIP_CFD_AF_245_143_N.png,1,44,139,44,,,,,,,,,,,,,,,,,,,,,,,,,,,,,,,,,,,422.0243499999997,422.32273859999987,422.32273859999987,422.32273859999987,422.32273859999987,422.32273859999987,0.30733990000044287,46.01851851851852,0.8931312000004255,-0.02962962962962963,-0.37407407407407406,1,0,0,NextBu,60.27777777777777,1.70742539999992,0.7192266079246235,424.11157600000024,424.83692640000027,,,,,2023-04-07_21h51.21.854,FaceAttractiveness,2022.2.5,140.22157813774626,
images\LIP_CFD_AM_233_236_N.png,1,45,140,45,,,,,,,,,,,,,,,,,,,,,,,,,,,,,,,,,,,424.83692640000027,425.13447799999994,425.13447799999994,425.13447799999994,425.13447799999994,425.13447799999994,0.30655790000037086,45.27777777777778,0.7760705999999118,-0.027777777777777776,-0.38333333333333336,1,0,0,NextBu,57.96296296296296,1.3719893999996202,0.5152199813809254,426.5405203,427.06050380000033,,,,,2023-04-07_21h51.21.854,FaceAttractiveness,2022.2.5,140.22157813774626,
images\LIP_CFD_BF_214_308_N.png,1,46,141,46,,,,,,,,,,,,,,,,,,,,,,,,,,,,,,,,,,,427.06050380000033,427.3497342999999,427.3497342999999,427.3497342999999,427.3497342999999,427.3497342999999,0.3001001000002361,45.925925925925924,0.8951325999996698,0.006481481481481481,-0.40370370370370373,1,0,0,NextBu,62.129629629629626,1.891329300000507,0.7866124408506736,429.39634639999986,430.1878359000002,,,,,2023-04-07_21h51.21.854,FaceAttractiveness,2022.2.5,140.22157813774626,
images\LIP_CFD_BF_224_002_N.png,1,47,142,47,,,,,,,,,,,,,,,,,,,,,,,,,,,,,,,,,,,430.1878359000002,430.48287979999986,430.48287979999986,430.48287979999986,430.48287979999986,430.48287979999986,0.3066131999994468,39.62962962962963,0.722458799999913,0.024074074074074074,-0.4111111111111111,1,0,0,NextBu,59.72222222222222,1.3239745000000767,0.6374668242902295,431.84505609999997,432.48942590000024,,,,,2023-04-07_21h51.21.854,FaceAttractiveness,2022.2.5,140.22157813774626,
images\LIP_CFD_BM_213_134_N.png,1,48,143,48,,,,,,,,,,,,,,,,,,,,,,,,,,,,,,,,,,,432.48942590000024,432.7865535000001,432.7865535000001,432.7865535000001,432.7865535000001,432.7865535000001,0.3058850999996139,44.907407407407405,0.8624537999994573,0.03888888888888889,-0.44074074074074077,1,0,0,NextBu,61.38888888888889,1.557669299999361,0.7843814137080316,434.40326129999994,435.19021689999954,,,,,2023-04-07_21h51.21.854,FaceAttractiveness,2022.2.5,140.22157813774626,
images\LIP_CFD_BM_234_172_N.png,1,49,144,49,,,,,,,,,,,,,,,,,,,,,,,,,,,,,,,,,,,435.19021689999954,435.4831127999996,435.4831127999996,435.4831127999996,435.4831127999996,435.4831127999996,0.30199589999938325,39.166666666666664,0.9179177000005438,0.058333333333333334,-0.3990740740740741,1,0,0,NextBu,62.40740740740741,2.124715400000241,0.6163575613350736,437.5989943000004,438.2185331999999,,,,,2023-04-07_21h51.21.854,FaceAttractiveness,2022.2.5,140.22157813774626,
images\LIP_CFD_LF_224_176_N.png,1,50,145,50,,,,,,,,,,,,,,,,,,,,,,,,,,,,,,,,,,,438.2185331999999,438.5168900999997,438.5168900999997,438.5168900999997,438.5168900999997,438.5168900999997,0.3077204000001075,46.2037037037037,1.0985314999998081,0.012962962962962963,-0.4,1,0,0,NextBu,60.92592592592593,1.9797100999994655,0.9893053796894453,440.5347677,441.53091289999975,,,,,2023-04-07_21h51.21.854,FaceAttractiveness,2022.2.5,140.22157813774626,
images\LIP_CFD_LM_201_057_N.png,1,51,146,51,,,,,,,,,,,,,,,,,,,,,,,,,,,,,,,,,,,441.53091289999975,441.8290186000004,441.8290186000004,441.8290186000004,441.8290186000004,441.8290186000004,0.3078697999999349,52.31481481481482,0.9222581999993054,-0.009259259259259259,-0.4,1,0,0,NextBu,59.25925925925925,1.6322393999998894,0.9088751101466507,443.86101210000015,444.77462360000027,,,,,2023-04-07_21h51.21.854,FaceAttractiveness,2022.2.5,140.22157813774626,
images\LIP_CFD_LM_203_026_N.png,1,52,147,52,,,,,,,,,,,,,,,,,,,,,,,,,,,,,,,,,,,444.77462360000027,445.07244850000006,445.07244850000006,445.07244850000006,445.07244850000006,445.07244850000006,0.30695100000048114,62.5,0.7513126999992892,0.009259259259259259,-0.4462962962962963,1,0,0,NextBu,61.85185185185185,1.4563912000003256,0.8743337655551903,446.5624909999997,447.4409384999999,,,,,2023-04-07_21h51.21.854,FaceAttractiveness,2022.2.5,140.22157813774626,
images\LIP_CFD_WF_002_004_N.png,1,53,148,53,,,,,,,,,,,,,,,,,,,,,,,,,,,,,,,,,,,447.4409384999999,447.73829490000026,447.73829490000026,447.73829490000026,447.73829490000026,447.73829490000026,0.30672820000017964,61.66666666666667,1.1010207999997874,-0.011111111111111112,-0.4046296296296296,1,0,0,NextBu,56.574074074074076,1.8379321000002165,0.7925664033570037,450.09716109999954,450.89203480000015,,,,,2023-04-07_21h51.21.854,FaceAttractiveness,2022.2.5,140.22157813774626,
images\LIP_CFD_WF_200_099_N.png,1,54,149,54,,,,,,,,,,,,,,,,,,,,,,,,,,,,,,,,,,,450.89203480000015,451.19066810000004,451.19066810000004,451.19066810000004,451.19066810000004,451.19066810000004,0.30789420000019163,72.77777777777777,3.4512673999997787,0.037037037037037035,-0.3990740740740741,1,0,0,NextBu,51.01851851851852,1.1461871000001338,0.8658207236326622,454.8130583000002,455.6898321999997,,,,,2023-04-07_21h51.21.854,FaceAttractiveness,2022.2.5,140.22157813774626,
images\LIP_CFD_WF_250_167_N.png,1,55,150,55,,,,,,,,,,,,,,,,,,,,,,,,,,,,,,,,,,,455.6898321999997,455.98839990000033,455.98839990000033,455.98839990000033,455.98839990000033,455.98839990000033,0.3076528999999937,60.092592592592595,0.8252282000003106,0.049074074074074076,-0.41759259259259257,1,0,0,NextBu,61.85185185185185,1.393195900000137,0.9584179190865789,457.4096582000002,458.3708641000003,,,,,2023-04-07_21h51.21.854,FaceAttractiveness,2022.2.5,140.22157813774626,
images\LIP_CFD_WM_212_097_N.png,1,56,151,56,,,,,,,,,,,,,,,,,,,,,,,,,,,,,,,,,,,458.3708641000003,458.66856840000037,458.66856840000037,458.66856840000037,458.66856840000037,458.66856840000037,0.30769330000021,73.05555555555556,0.7159546000002592,0.023148148148148147,-0.44166666666666665,1,0,0,NextBu,62.03703703703704,1.3785342999999557,0.8167545433256669,460.0555849000002,460.87920060000033,,,,,2023-04-07_21h51.21.854,FaceAttractiveness,2022.2.5,140.22157813774626,
images\NASALTIP_006_M_F_N_A.png,1,57,152,57,,,,,,,,,,,,,,,,,,,,,,,,,,,,,,,,,,,460.87920060000033,461.1758455999998,461.1758455999998,461.1758455999998,461.1758455999998,461.1758455999998,0.30745000000024447,64.44444444444444,1.15532069999972,0.041666666666666664,-0.40370370370370373,1,0,0,NextBu,60.46296296296296,1.763142699999662,0.5272434840300257,463.0276735999996,463.5578150000001,,,,,2023-04-07_21h51.21.854,FaceAttractiveness,2022.2.5,140.22157813774626,
images\NASALTIP_035_M_F_N_A.png,1,58,153,58,,,,,,,,,,,,,,,,,,,,,,,,,,,,,,,,,,,463.5578150000001,463.8562320000001,463.8562320000001,463.8562320000001,463.8562320000001,463.8562320000001,0.3072338000001764,67.68518518518518,1.531819799999539,-0.02962962962962963,-0.39814814814814814,1,0,0,NextBu,41.2962962962963,2.151509299999816,0.9936638881631812,466.1644044000004,467.1619257000002,,,,,2023-04-07_21h51.21.854,FaceAttractiveness,2022.2.5,140.22157813774626,
images\NASALTIP_087_M_M_N_A.png,1,59,154,59,,,,,,,,,,,,,,,,,,,,,,,,,,,,,,,,,,,467.1619257000002,467.46048359999986,467.46048359999986,467.46048359999986,467.46048359999986,467.46048359999986,0.3076178000001164,56.666666666666664,1.8310039999996661,0.026851851851851852,-0.3990740740740741,1,0,0,NextBu,51.85185185185185,2.445917500000178,0.8700487407815863,469.95093180000003,470.8285348999998,,,,,2023-04-07_21h51.21.854,FaceAttractiveness,2022.2.5,140.22157813774626,
images\NASALTIP_136_M_M_N_A.png,1,60,155,60,,,,,,,,,,,,,,,,,,,,,,,,,,,,,,,,,,,470.8285348999998,471.1276905000004,471.1276905000004,471.1276905000004,471.1276905000004,471.1276905000004,0.3085247999997591,57.592592592592595,1.0740310999999565,0.04537037037037037,-0.37962962962962965,1,0,0,NextBu,58.333333333333336,1.612341699999888,0.9491026483418146,472.72825699999976,473.68154830000003,,,,,2023-04-07_21h51.21.854,FaceAttractiveness,2022.2.5,140.22157813774626,
images\NASALTIP_CFD_AF_231_357_N.png,1,61,156,61,,,,,,,,,,,,,,,,,,,,,,,,,,,,,,,,,,,473.68154830000003,473.97353269999985,473.97353269999985,473.97353269999985,473.97353269999985,473.97353269999985,0.303026100000352,53.888888888888886,1.103407500000685,0.028703703703703703,-0.38796296296296295,1,0,0,NextBu,55.833333333333336,1.8600359000001845,0.7701289167177627,475.85406669999975,476.62730099999953,,,,,2023-04-07_21h51.21.854,FaceAttractiveness,2022.2.5,140.22157813774626,
images\NASALTIP_CFD_AF_237_223_N.png,1,62,157,62,,,,,,,,,,,,,,,,,,,,,,,,,,,,,,,,,,,476.62730099999953,476.9259355000004,476.9259355000004,476.9259355000004,476.9259355000004,476.9259355000004,0.29902560000027734,54.907407407407405,0.9072567000002891,-0.03796296296296296,-0.4287037037037037,1,0,0,NextBu,54.44444444444444,1.561476599999878,0.7204140683317244,478.5197612000002,479.2446600000003,,,,,2023-04-07_21h51.21.854,FaceAttractiveness,2022.2.5,140.22157813774626,
images\NASALTIP_CFD_AF_245_143_N.png,1,63,158,63,,,,,,,,,,,,,,,,,,,,,,,,,,,,,,,,,,,479.2446600000003,479.5432085000002,479.5432085000002,479.5432085000002,479.5432085000002,479.5432085000002,0.30745329999990645,46.2037037037037,0.8284266000000571,-0.041666666666666664,-0.4027777777777778,1,0,0,NextBu,49.907407407407405,1.415393799999947,0.9000604815486468,480.97148279999965,481.8770800000002,,,,,2023-04-07_21h51.21.854,FaceAttractiveness,2022.2.5,140.22157813774626,
images\NASALTIP_CFD_AM_233_236_N.png,1,64,159,64,,,,,,,,,,,,,,,,,,,,,,,,,,,,,,,,,,,481.8770800000002,482.17577919999985,482.17577919999985,482.17577919999985,482.17577919999985,482.17577919999985,0.30775309999989986,49.81481481481482,0.7221554999996442,-0.012037037037037037,-0.42407407407407405,1,0,0,NextBu,50.18518518518519,1.345430899999883,0.5110428380041215,483.99912010000025,484.5169023999997,,,,,2023-04-07_21h51.21.854,FaceAttractiveness,2022.2.5,140.22157813774626,
images\NASALTIP_CFD_BF_214_308_N.png,1,65,160,65,,,,,,,,,,,,,,,,,,,,,,,,,,,,,,,,,,,484.5169023999997,484.81411819999994,484.81411819999994,484.81411819999994,484.81411819999994,484.81411819999994,0.3075144000004002,46.38888888888889,0.9833023999999568,0.017592592592592594,-0.375,1,0,0,NextBu,53.98148148148149,1.7437349000001632,0.5829937996973873,486.69341170000007,487.2803600999996,,,,,2023-04-07_21h51.21.854,FaceAttractiveness,2022.2.5,140.22157813774626,
images\NASALTIP_CFD_BF_224_002_N.png,1,66,161,66,,,,,,,,,,,,,,,,,,,,,,,,,,,,,,,,,,,487.2803600999996,487.5779931999996,487.5779931999996,487.5779931999996,487.5779931999996,487.5779931999996,0.3074189999997543,45.55555555555556,0.7231037999999899,-0.030555555555555555,-0.38425925925925924,1,0,0,NextBu,54.166666666666664,1.351742199999535,0.6757162027637712,488.91418969999995,489.5919808999997,,,,,2023-04-07_21h51.21.854,FaceAttractiveness,2022.2.5,140.22157813774626,
images\NASALTIP_CFD_BM_213_134_N.png,1,67,162,67,,,,,,,,,,,,,,,,,,,,,,,,,,,,,,,,,,,489.5919808999997,489.891251,489.891251,489.891251,489.891251,489.891251,0.30793530000028113,42.22222222222222,0.709209099999498,0.025925925925925925,-0.37777777777777777,1,0,0,NextBu,55.74074074074073,1.4250464000006104,0.8824707797018558,491.26326979999976,492.14756729999954,,,,,2023-04-07_21h51.21.854,FaceAttractiveness,2022.2.5,140.22157813774626,
images\NASALTIP_CFD_BM_234_172_N.png,1,68,163,68,,,,,,,,,,,,,,,,,,,,,,,,,,,,,,,,,,,492.14756729999954,492.4458617,492.4458617,492.4458617,492.4458617,492.4458617,0.3072252000001754,44.72222222222222,0.7022030999996787,0.025,-0.4166666666666667,1,0,0,NextBu,55.46296296296296,1.3266525999997612,0.9305401890950336,493.73506799999996,494.6686643000003,,,,,2023-04-07_21h51.21.854,FaceAttractiveness,2022.2.5,140.22157813774626,
images\NASALTIP_CFD_LF_224_176_N.png,1,69,164,69,,,,,,,,,,,,,,,,,,,,,,,,,,,,,,,,,,,494.6686643000003,494.96705660000043,494.96705660000043,494.96705660000043,494.96705660000043,494.96705660000043,0.30772930000057386,46.94444444444444,1.0053557999999612,0.012962962962962963,-0.37407407407407406,1,0,0,NextBu,56.94444444444444,1.8531574999997247,0.670677934803809,496.8112392000003,497.48710949999986,,,,,2023-04-07_21h51.21.854,FaceAttractiveness,2022.2.5,140.22157813774626,
images\NASALTIP_CFD_LM_201_057_N.png,1,70,165,70,,,,,,,,,,,,,,,,,,,,,,,,,,,,,,,,,,,497.48710949999986,497.78694019999966,497.78694019999966,497.78694019999966,497.78694019999966,497.78694019999966,0.30866119999973307,52.77777777777778,0.9915184999999838,0.040740740740740744,-0.3990740740740741,1,0,0,NextBu,54.44444444444444,1.695884599999772,0.8910339222311969,499.4515491000002,500.3484392999999,,,,,2023-04-07_21h51.21.854,FaceAttractiveness,2022.2.5,140.22157813774626,
images\NASALTIP_CFD_LM_203_026_N.png,1,71,166,71,,,,,,,,,,,,,,,,,,,,,,,,,,,,,,,,,,,500.3484392999999,500.64667869999994,500.64667869999994,500.64667869999994,500.64667869999994,500.64667869999994,0.3074391000000105,46.94444444444444,0.8307261999998445,0.022222222222222223,-0.3962962962962963,1,0,0,NextBu,55.46296296296296,1.3797574999998687,0.5804119015661247,502.1030947999998,502.69031019999966,,,,,2023-04-07_21h51.21.854,FaceAttractiveness,2022.2.5,140.22157813774626,
images\NASALTIP_CFD_WF_002_004_N.png,1,72,167,72,,,,,,,,,,,,,,,,,,,,,,,,,,,,,,,,,,,502.69031019999966,502.9874866,502.9874866,502.9874866,502.9874866,502.9874866,0.3077126000007411,47.87037037037037,0.9589201999997385,0.022222222222222223,-0.4351851851851852,1,0,0,NextBu,57.49999999999999,1.6240923999994266,0.8323484157040717,504.5751640999997,505.4114234999997,,,,,2023-04-07_21h51.21.854,FaceAttractiveness,2022.2.5,140.22157813774626,
images\NASALTIP_CFD_WF_200_099_N.png,1,73,168,73,,,,,,,,,,,,,,,,,,,,,,,,,,,,,,,,,,,505.4114234999997,505.7098784,505.7098784,505.7098784,505.7098784,505.7098784,0.3080179999997199,56.75925925925927,1.2473632999999609,-0.007407407407407408,-0.3768518518518518,1,0,0,NextBu,52.87037037037037,1.9189893000002485,0.831421357805783,507.67200330000014,508.5082233000003,,,,,2023-04-07_21h51.21.854,FaceAttractiveness,2022.2.5,140.22157813774626,
images\NASALTIP_CFD_WF_250_167_N.png,1,74,169,74,,,,,,,,,,,,,,,,,,,,,,,,,,,,,,,,,,,508.5082233000003,508.8076563000004,508.8076563000004,508.8076563000004,508.8076563000004,508.8076563000004,0.30817239999942103,47.77777777777778,1.588843999999881,0.03425925925925926,-0.3675925925925926,1,0,0,NextBu,55.37037037037037,2.1996429999999236,0.5420384331515449,511.0820002999999,511.6284423999996,,,,,2023-04-07_21h51.21.854,FaceAttractiveness,2022.2.5,140.22157813774626,
images\NASALTIP_CFD_WM_212_097_N.png,1,75,170,75,,,,,,,,,,,,,,,,,,,,,,,,,,,,,,,,,,,511.6284423999996,511.9245338999999,511.9245338999999,511.9245338999999,511.9245338999999,511.9245338999999,0.3071741000003385,50.09259259259259,0.9580487000002904,0.014814814814814815,-0.4074074074074074,1,0,0,NextBu,51.66666666666667,1.636552899999515,0.7993065755264461,513.5522699000003,514.3570124999997,,,,,2023-04-07_21h51.21.854,FaceAttractiveness,2022.2.5,140.22157813774626,
images\RCHEEK_006_M_F_N_A.png,1,76,171,76,,,,,,,,,,,,,,,,,,,,,,,,,,,,,,,,,,,514.3570124999997,514.6544608000004,514.6544608000004,514.6544608000004,514.6544608000004,514.6544608000004,0.3078365000001213,48.24074074074074,1.000693300000421,0.023148148148148147,-0.40555555555555556,1,0,0,NextBu,54.907407407407405,1.7662486999997782,0.5605824941224488,516.4909002000004,517.0563863999996,,,,,2023-04-07_21h51.21.854,FaceAttractiveness,2022.2.5,140.22157813774626,
images\RCHEEK_035_M_F_N_A.png,1,77,172,77,,,,,,,,,,,,,,,,,,,,,,,,,,,,,,,,,,,517.0563863999996,517.3563666999999,517.3563666999999,517.3563666999999,517.3563666999999,517.3563666999999,0.308572699999786,43.425925925925924,0.7717511000000741,0.053703703703703705,-0.4027777777777778,1,0,0,NextBu,58.14814814814815,1.5679052000004958,0.987041949916061,518.9012909000003,519.8913165000004,,,,,2023-04-07_21h51.21.854,FaceAttractiveness,2022.2.5,140.22157813774626,
images\RCHEEK_087_M_M_N_A.png,1,78,173,78,,,,,,,,,,,,,,,,,,,,,,,,,,,,,,,,,,,519.8913165000004,520.1887263999997,520.1887263999997,520.1887263999997,520.1887263999997,520.1887263999997,0.30673190000015893,44.53703703703704,0.9835003999996843,0.03611111111111111,-0.40370370370370373,1,0,0,NextBu,55.648148148148145,1.5644321999998283,0.8709303967872599,521.6926121999995,522.5704265000004,,,,,2023-04-07_21h51.21.854,FaceAttractiveness,2022.2.5,140.22157813774626,
images\RCHEEK_136_M_M_N_A.png,1,79,174,79,,,,,,,,,,,,,,,,,,,,,,,,,,,,,,,,,,,522.5704265000004,522.8695735000001,522.8695735000001,522.8695735000001,522.8695735000001,522.8695735000001,0.30859529999997903,53.61111111111111,0.760229999999865,0.037037037037037035,-0.41759259259259257,1,0,0,NextBu,57.31481481481482,1.312898899999709,0.5022839941740134,524.2136203,524.7245333999999,,,,,2023-04-07_21h51.21.854,FaceAttractiveness,2022.2.5,140.22157813774626,
images\RCHEEK_CFD_AF_231_357_N.png,1,80,175,80,,,,,,,,,,,,,,,,,,,,,,,,,,,,,,,,,,,524.7245333999999,525.0224913000002,525.0224913000002,525.0224913000002,525.0224913000002,525.0224913000002,0.3081230999996478,49.166666666666664,1.0137167999992016,0.049074074074074076,-0.387037037037037,1,0,0,NextBu,53.888888888888886,1.705092500000319,0.6952460071014257,526.7349482999998,527.4392060999999,,,,,2023-04-07_21h51.21.854,FaceAttractiveness,2022.2.5,140.22157813774626,
images\RCHEEK_CFD_AF_237_223_N.png,1,81,176,81,,,,,,,,,,,,,,,,,,,,,,,,,,,,,,,,,,,527.4392060999999,527.7370451999996,527.7370451999996,527.7370451999996,527.7370451999996,527.7370451999996,0.30761679999977787,47.96296296296296,0.7671614000000773,0.04722222222222222,-0.3972222222222222,1,0,0,NextBu,58.05555555555556,1.3800128000002587,0.7703470981427141,529.0955426999999,529.8687449999998,,,,,2023-04-07_21h51.21.854,FaceAttractiveness,2022.2.5,140.22157813774626,
images\RCHEEK_CFD_AF_245_143_N.png,1,82,177,82,,,,,,,,,,,,,,,,,,,,,,,,,,,,,,,,,,,529.8687449999998,530.1604528999997,530.1604528999997,530.1604528999997,530.1604528999997,530.1604528999997,0.30112710000048537,48.51851851851852,2.1976731999993717,0.04259259259259259,-0.4,1,0,0,NextBu,58.611111111111114,2.7570989000005284,0.5743053345565037,532.9353075999998,533.5147046000002,,,,,2023-04-07_21h51.21.854,FaceAttractiveness,2022.2.5,140.22157813774626,
images\RCHEEK_CFD_AM_233_236_N.png,1,83,178,83,,,,,,,,,,,,,,,,,,,,,,,,,,,,,,,,,,,533.5147046000002,533.8130762000001,533.8130762000001,533.8130762000001,533.8130762000001,533.8130762000001,0.3074447999997574,42.77777777777778,0.9109325999997964,0.040740740740740744,-0.42407407407407405,1,0,0,NextBu,55.27777777777778,2.1207479999993666,0.5167629028198737,535.9634834999997,536.4882207,,,,,2023-04-07_21h51.21.854,FaceAttractiveness,2022.2.5,140.22157813774626,
images\RCHEEK_CFD_BF_214_308_N.png,1,84,179,84,,,,,,,,,,,,,,,,,,,,,,,,,,,,,,,,,,,536.4882207,536.7839622000001,536.7839622000001,536.7839622000001,536.7839622000001,536.7839622000001,0.3064944999996442,48.98148148148148,0.7873584999997547,0.06759259259259259,-0.42407407407407405,1,0,0,NextBu,57.77777777777777,1.6984571000002688,0.9474306632309608,538.4838413999996,539.4379335000003,,,,,2023-04-07_21h51.21.854,FaceAttractiveness,2022.2.5,140.22157813774626,
images\RCHEEK_CFD_BF_224_002_N.png,1,85,180,85,,,,,,,,,,,,,,,,,,,,,,,,,,,,,,,,,,,539.4379335000003,539.7364488000003,539.7364488000003,539.7364488000003,539.7364488000003,539.7364488000003,0.3079508999999234,51.57407407407407,0.9013965000003736,0.03611111111111111,-0.37222222222222223,1,0,0,NextBu,54.44444444444444,1.6023267000000487,0.9528651164086492,541.3242619000002,542.2862904000003,,,,,2023-04-07_21h51.21.854,FaceAttractiveness,2022.2.5,140.22157813774626,
images\RCHEEK_CFD_BM_213_134_N.png,1,86,181,86,,,,,,,,,,,,,,,,,,,,,,,,,,,,,,,,,,,542.2862904000003,542.5772895999999,542.5772895999999,542.5772895999999,542.5772895999999,542.5772895999999,0.30122860000028595,54.074074074074076,0.9892614000000322,-0.019444444444444445,-0.40555555555555556,1,0,0,NextBu,52.407407407407405,1.4515198999997665,0.7423849249258152,544.7345341999999,545.4794279999996,,,,,2023-04-07_21h51.21.854,FaceAttractiveness,2022.2.5,140.22157813774626,
images\RCHEEK_CFD_BM_234_172_N.png,1,87,182,87,,,,,,,,,,,,,,,,,,,,,,,,,,,,,,,,,,,545.4794279999996,545.7776502999996,545.7776502999996,545.7776502999996,545.7776502999996,545.7776502999996,0.3072011999993265,51.94444444444445,1.251745600000504,0.002777777777777778,-0.3990740740740741,1,0,0,NextBu,54.35185185185185,1.8457431999995606,0.5085599299716456,547.7200538999996,548.2363248000001,,,,,2023-04-07_21h51.21.854,FaceAttractiveness,2022.2.5,140.22157813774626,
images\RCHEEK_CFD_LF_224_176_N.png,1,88,183,88,,,,,,,,,,,,,,,,,,,,,,,,,,,,,,,,,,,548.2363248000001,548.5288841000001,548.5288841000001,548.5288841000001,548.5288841000001,548.5288841000001,0.30221499999970547,51.01851851851852,0.9971353999999337,-0.013888888888888888,-0.37962962962962965,1,0,0,NextBu,51.48148148148148,1.5184374999998909,0.8017100062264055,550.1505233999997,550.9587377999997,,,,,2023-04-07_21h51.21.854,FaceAttractiveness,2022.2.5,140.22157813774626,
images\RCHEEK_CFD_LM_201_057_N.png,1,89,184,89,,,,,,,,,,,,,,,,,,,,,,,,,,,,,,,,,,,550.9587377999997,551.2568785000003,551.2568785000003,551.2568785000003,551.2568785000003,551.2568785000003,0.3073143000001437,41.75925925925926,0.8764651999999842,-0.000925925925925926,-0.3907407407407407,1,0,0,NextBu,53.7962962962963,1.5773103999999876,0.7004130959187709,552.8377018000001,553.5422374999998,,,,,2023-04-07_21h51.21.854,FaceAttractiveness,2022.2.5,140.22157813774626,
images\RCHEEK_CFD_LM_203_026_N.png,1,90,185,90,,,,,,,,,,,,,,,,,,,,,,,,,,,,,,,,,,,553.5422374999998,553.8378241,553.8378241,553.8378241,553.8378241,553.8378241,0.30491429999983666,43.7962962962963,1.1440592999997534,0.025925925925925925,-0.4046296296296296,1,0,0,NextBu,58.611111111111114,1.7880011000006562,0.7390903297697149,555.6571870999996,556.4036579000003,,,,,2023-04-07_21h51.21.854,FaceAttractiveness,2022.2.5,140.22157813774626,
images\RCHEEK_CFD_WF_002_004_N.png,1,91,186,91,,,,,,,,,,,,,,,,,,,,,,,,,,,,,,,,,,,556.4036579000003,556.7010573999996,556.7010573999996,556.7010573999996,556.7010573999996,556.7010573999996,0.3071447000002081,43.333333333333336,1.0599575999995068,0.010185185185185186,-0.43425925925925923,1,0,0,NextBu,57.407407407407405,1.7244550999994317,0.8113413183659015,558.4839129000002,559.2985927999998,,,,,2023-04-07_21h51.21.854,FaceAttractiveness,2022.2.5,140.22157813774626,
images\RCHEEK_CFD_WF_200_099_N.png,1,92,187,92,,,,,,,,,,,,,,,,,,,,,,,,,,,,,,,,,,,559.2985927999998,559.5966022000002,559.5966022000002,559.5966022000002,559.5966022000002,559.5966022000002,0.3075705999999627,43.24074074074074,0.9241221000002042,-0.07222222222222222,-0.3972222222222222,1,0,0,NextBu,35.0,1.706594999999652,0.8992066947690568,561.4414244,562.3466361000001,,,,,2023-04-07_21h51.21.854,FaceAttractiveness,2022.2.5,140.22157813774626,
images\RCHEEK_CFD_WF_250_167_N.png,1,93,188,93,,,,,,,,,,,,,,,,,,,,,,,,,,,,,,,,,,,562.3466361000001,562.6455071999999,562.6455071999999,562.6455071999999,562.6455071999999,562.6455071999999,0.30765189999965514,67.77777777777779,1.0962330000002112,-0.03888888888888889,-0.3888888888888889,1,0,0,NextBu,60.370370370370374,1.6661149999999907,0.7211515049740346,564.2544404999999,564.9813033999999,,,,,2023-04-07_21h51.21.854,FaceAttractiveness,2022.2.5,140.22157813774626,
images\RCHEEK_CFD_WM_212_097_N.png,1,94,189,94,,,,,,,,,,,,,,,,,,,,,,,,,,,,,,,,,,,564.9813033999999,565.2781574999999,565.2781574999999,565.2781574999999,565.2781574999999,565.2781574999999,0.3084253999995781,59.72222222222222,0.9190522000008059,0.020370370370370372,-0.4074074074074074,1,0,0,NextBu,59.53703703703703,1.5041179999998349,0.85220139205025,566.8233238000003,567.6806348,,,,,2023-04-07_21h51.21.854,FaceAttractiveness,2022.2.5,140.22157813774626,
images\FOREHEAD_006_M_F_N_A.png,2,0,190,0,,,,,,,,,,,,,,,,,,,,,,,,,,,,,,,,,,,567.6806348,567.9789105,567.9789105,567.9789105,567.9789105,567.9789105,0.30773470000076486,43.611111111111114,0.8664634000006117,0.025,-0.4185185185185185,1,0,0,NextBu,56.2962962962963,1.6676170000000639,0.9004334138670398,569.6359356000003,570.5419765999995,,,,,2023-04-07_21h51.21.854,FaceAttractiveness,2022.2.5,140.22157813774626,
images\FOREHEAD_035_M_F_N_A.png,2,1,191,1,,,,,,,,,,,,,,,,,,,,,,,,,,,,,,,,,,,570.5419765999995,570.8344184999996,570.8344184999996,570.8344184999996,570.8344184999996,570.8344184999996,0.3017042000001311,57.03703703703704,1.6610337000001891,-0.03981481481481482,-0.38055555555555554,1,0,0,NextBu,56.2037037037037,2.130565299999944,0.880794887358453,573.0040069999995,573.8896635000001,,,,,2023-04-07_21h51.21.854,FaceAttractiveness,2022.2.5,140.22157813774626,
images\FOREHEAD_087_M_M_N_A.png,2,2,192,2,,,,,,,,,,,,,,,,,,,,,,,,,,,,,,,,,,,573.8896635000001,574.1867474999999,574.1867474999999,574.1867474999999,574.1867474999999,574.1867474999999,0.3063778000005186,66.57407407407408,0.8338943999997355,-0.017592592592592594,-0.3712962962962963,1,0,0,NextBu,58.796296296296305,1.69684849999976,0.6350236889429386,575.9125125999999,576.5548312000001,,,,,2023-04-07_21h51.21.854,FaceAttractiveness,2022.2.5,140.22157813774626,
images\FOREHEAD_136_M_M_N_A.png,2,3,193,3,,,,,,,,,,,,,,,,,,,,,,,,,,,,,,,,,,,576.5548312000001,576.8533669999997,576.8533669999997,576.8533669999997,576.8533669999997,576.8533669999997,0.30741829999988113,63.61111111111111,0.8922342999994726,-0.008333333333333333,-0.42407407407407405,1,0,0,NextBu,57.31481481481482,1.345671800000673,0.7858622458546354,578.7636761000003,579.5556174000003,,,,,2023-04-07_21h51.21.854,FaceAttractiveness,2022.2.5,140.22157813774626,
images\FOREHEAD_CFD_AF_231_357_N.png,2,4,194,4,,,,,,,,,,,,,,,,,,,,,,,,,,,,,,,,,,,579.5556174000003,579.8536309000001,579.8536309000001,579.8536309000001,579.8536309000001,579.8536309000001,0.30772740000065824,58.333333333333336,1.1407061999998405,-0.009259259259259259,-0.3907407407407407,1,0,0,NextBu,55.925925925925924,1.608936800000265,0.7486041216557615,581.4273431000001,582.1805376000002,,,,,2023-04-07_21h51.21.854,FaceAttractiveness,2022.2.5,140.22157813774626,
images\FOREHEAD_CFD_AF_237_223_N.png,2,5,195,5,,,,,,,,,,,,,,,,,,,,,,,,,,,,,,,,,,,582.1805376000002,582.4776211999997,582.4776211999997,582.4776211999997,582.4776211999997,582.4776211999997,0.3062122000001182,50.0,0.8215002999995704,-0.008333333333333333,-0.39537037037037037,1,0,0,NextBu,47.22222222222222,1.439593999999488,0.5486719271261785,583.8634384999996,584.4164274000004,,,,,2023-04-07_21h51.21.854,FaceAttractiveness,2022.2.5,140.22157813774626,
images\FOREHEAD_CFD_AF_245_143_N.png,2,6,196,6,,,,,,,,,,,,,,,,,,,,,,,,,,,,,,,,,,,584.4164274000004,584.7146014999998,584.7146014999998,584.7146014999998,584.7146014999998,584.7146014999998,0.3075908000000709,47.87037037037037,0.7956898000002184,-0.03888888888888889,-0.3824074074074074,1,0,0,NextBu,46.111111111111114,1.2504506999994192,0.5506309233657571,585.8949743000003,586.4514187000004,,,,,2023-04-07_21h51.21.854,FaceAttractiveness,2022.2.5,140.22157813774626,
images\FOREHEAD_CFD_AM_233_236_N.png,2,7,197,7,,,,,,,,,,,,,,,,,,,,,,,,,,,,,,,,,,,586.4514187000004,586.7489661999998,586.7489661999998,586.7489661999998,586.7489661999998,586.7489661999998,0.30712149999999383,52.129629629629626,0.753516299999319,0.026851851851851852,-0.4046296296296296,1,0,0,NextBu,51.85185185185185,2.53389530000004,0.710840400894321,589.2193104999997,589.9376143999998,,,,,2023-04-07_21h51.21.854,FaceAttractiveness,2022.2.5,140.22157813774626,
images\FOREHEAD_CFD_BF_214_308_N.png,2,8,198,8,,,,,,,,,,,,,,,,,,,,,,,,,,,,,,,,,,,589.9376143999998,590.2352014999997,590.2352014999997,590.2352014999997,590.2352014999997,590.2352014999997,0.30736549999983254,54.35185185185185,1.1670071000007738,-0.000925925925925926,-0.39351851851851855,1,0,0,NextBu,53.333333333333336,1.7020137999998042,0.9191222804386212,591.9552777999997,592.8814215000002,,,,,2023-04-07_21h51.21.854,FaceAttractiveness,2022.2.5,140.22157813774626,
images\FOREHEAD_CFD_BF_224_002_N.png,2,9,199,9,,,,,,,,,,,,,,,,,,,,,,,,,,,,,,,,,,,592.8814215000002,593.1792544999998,593.1792544999998,593.1792544999998,593.1792544999998,593.1792544999998,0.30733909999980824,56.666666666666664,1.0372575000001234,0.012962962962962963,-0.4324074074074074,1,0,0,NextBu,56.851851851851855,1.9916974999996455,0.668959793525767,595.1446609000004,595.8188671999997,,,,,2023-04-07_21h51.21.854,FaceAttractiveness,2022.2.5,140.22157813774626,
images\FOREHEAD_CFD_BM_213_134_N.png,2,10,200,10,,,,,,,,,,,,,,,,,,,,,,,,,,,,,,,,,,,595.8188671999997,596.1172000999995,596.1172000999995,596.1172000999995,596.1172000999995,596.1172000999995,0.30767500000001746,60.092592592592595,0.92049599999973,0.019444444444444445,-0.44166666666666665,1,0,0,NextBu,54.25925925925926,1.6880059000004621,0.5731244934965578,597.7671876000004,598.3466336000001,,,,,2023-04-07_21h51.21.854,FaceAttractiveness,2022.2.5,140.22157813774626,
images\FOREHEAD_CFD_BM_234_172_N.png,2,11,201,11,,,,,,,,,,,,,,,,,,,,,,,,,,,,,,,,,,,598.3466336000001,598.6452520000003,598.6452520000003,598.6452520000003,598.6452520000003,598.6452520000003,0.3074338999995234,60.0,0.84464669999943,0.023148148148148147,-0.4222222222222222,1,0,0,NextBu,53.148148148148145,2.372215899999901,0.8653891352678252,600.9754248999998,601.8530858000004,,,,,2023-04-07_21h51.21.854,FaceAttractiveness,2022.2.5,140.22157813774626,
images\FOREHEAD_CFD_LF_224_176_N.png,2,12,202,12,,,,,,,,,,,,,,,,,,,,,,,,,,,,,,,,,,,601.8530858000004,602.1448233000001,602.1448233000001,602.1448233000001,602.1448233000001,602.1448233000001,0.3013148000000001,60.92592592592593,1.1021470999994563,0.04537037037037037,-0.38981481481481484,1,0,0,NextBu,57.03703703703704,1.8532027000001108,0.5572127912898583,603.9741904000002,604.5335828999996,,,,,2023-04-07_21h51.21.854,FaceAttractiveness,2022.2.5,140.22157813774626,
images\FOREHEAD_CFD_LM_201_057_N.png,2,13,203,13,,,,,,,,,,,,,,,,,,,,,,,,,,,,,,,,,,,604.5335828999996,604.8262777999998,604.8262777999998,604.8262777999998,604.8262777999998,604.8262777999998,0.30161239999961253,51.66666666666667,0.9473539999999048,0.03981481481481482,-0.42592592592592593,1,0,0,NextBu,54.44444444444444,1.581111200000123,0.6745965406250227,606.447142,607.1240705,,,,,2023-04-07_21h51.21.854,FaceAttractiveness,2022.2.5,140.22157813774626,
images\FOREHEAD_CFD_LM_203_026_N.png,2,14,204,14,,,,,,,,,,,,,,,,,,,,,,,,,,,,,,,,,,,607.1240705,607.4223763,607.4223763,607.4223763,607.4223763,607.4223763,0.307445600000392,58.51851851851851,0.9534201999995275,0.019444444444444445,-0.40185185185185185,1,0,0,NextBu,55.74074074074073,1.5811822000005122,0.7942184891062054,608.9334854999997,609.7350404999997,,,,,2023-04-07_21h51.21.854,FaceAttractiveness,2022.2.5,140.22157813774626,
images\FOREHEAD_CFD_WF_002_004_N.png,2,15,205,15,,,,,,,,,,,,,,,,,,,,,,,,,,,,,,,,,,,609.7350404999997,610.0266966999998,610.0266966999998,610.0266966999998,610.0266966999998,610.0266966999998,0.30095859999983077,63.24074074074074,1.0529514999998355,0.025,-0.4148148148148148,1,0,0,NextBu,59.25925925925925,1.693224900000132,0.7185549536513443,611.7597837000003,612.4851756999997,,,,,2023-04-07_21h51.21.854,FaceAttractiveness,2022.2.5,140.22157813774626,
images\FOREHEAD_CFD_WF_200_099_N.png,2,16,206,16,,,,,,,,,,,,,,,,,,,,,,,,,,,,,,,,,,,612.4851756999997,612.7846250000002,612.7846250000002,612.7846250000002,612.7846250000002,612.7846250000002,0.30878130000019155,60.18518518518518,0.8106468999994831,0.013888888888888888,-0.42685185185185187,1,0,0,NextBu,59.62962962962963,1.535660999999891,0.8430996503612569,614.2745378999998,615.1235348999999,,,,,2023-04-07_21h51.21.854,FaceAttractiveness,2022.2.5,140.22157813774626,
images\FOREHEAD_CFD_WF_250_167_N.png,2,17,207,17,,,,,,,,,,,,,,,,,,,,,,,,,,,,,,,,,,,615.1235348999999,615.4152856999999,615.4152856999999,615.4152856999999,615.4152856999999,615.4152856999999,0.30056729999978415,65.37037037037037,1.3714659999996002,0.044444444444444446,-0.4287037037037037,1,0,0,NextBu,67.5,2.1317299000002095,0.6362484686795578,617.5173561000001,618.1606732,,,,,2023-04-07_21h51.21.854,FaceAttractiveness,2022.2.5,140.22157813774626,
images\FOREHEAD_CFD_WM_212_097_N.png,2,18,208,18,,,,,,,,,,,,,,,,,,,,,,,,,,,,,,,,,,,618.1606732,618.4570918999998,618.4570918999998,618.4570918999998,618.4570918999998,618.4570918999998,0.30749849999938306,71.2962962962963,1.2020016000005853,0.028703703703703703,-0.41203703703703703,1,0,0,NextBu,62.870370370370374,1.8268987999999808,0.9707302472469057,620.2671712000001,621.2431069000004,,,,,2023-04-07_21h51.21.854,FaceAttractiveness,2022.2.5,140.22157813774626,
images\LCHEEK_006_M_F_N_A.png,2,19,209,19,,,,,,,,,,,,,,,,,,,,,,,,,,,,,,,,,,,621.2431069000004,621.5400271999997,621.5400271999997,621.5400271999997,621.5400271999997,621.5400271999997,0.30710159999944153,64.53703703703704,1.336451500000294,0.011111111111111112,-0.3925925925925926,1,0,0,NextBu,56.111111111111114,2.1576247000002695,0.752606016472966,623.8157848000001,624.5753396999999,,,,,2023-04-07_21h51.21.854,FaceAttractiveness,2022.2.5,140.22157813774626,
