faceImages,RatingBlockOrder.thisRepN,RatingBlockOrder.thisTrialN,RatingBlockOrder.thisN,RatingBlockOrder.thisIndex,originalFaceTrials.thisRepN,originalFaceTrials.thisTrialN,originalFaceTrials.thisN,originalFaceTrials.thisIndex,ITI,text.started,text.stopped,Name,Gender,Age,Ethnicity,date,expName,psychopyVersion,frameRate,
images\ RCHEEK_CFD_AF_231_357_N.png,0,0,0,8,0,0,0,80,0.6397790446143039,8.570732399995904,9.211635200015735,,,,,2023-04-07_19h59.28.281,FaceAttractiveness,2022.2.5,144.11942312884284,
"images\ NASALTIP_136_M_M_N_A.png
",0,0,0,8,0,1,1,60,0.6664406450781895,9.211635200015735,9.877821000001859,,,,,2023-04-07_19h59.28.281,FaceAttractiveness,2022.2.5,144.11942312884284,
images\FOREHEAD_035_M_F_N_A.png,0,0,0,8,0,2,2,1,0.5243198872183911,9.877821000001859,10.405477599997539,,,,,2023-04-07_19h59.28.281,FaceAttractiveness,2022.2.5,144.11942312884284,
images\ RCHEEK_CFD_WM_212_097_N.png,0,0,0,8,0,3,3,94,0.7147161001629134,10.405477599997539,11.12028749997262,,,,,2023-04-07_19h59.28.281,FaceAttractiveness,2022.2.5,144.11942312884284,
images\ NASALTIP_CFD_AF_237_223_N.png,0,0,0,8,0,4,4,62,0.5338449625958042,11.12028749997262,11.65504719997989,,,,,2023-04-07_19h59.28.281,FaceAttractiveness,2022.2.5,144.11942312884284,
"images\ RCHEEK_136_M_M_N_A.png
",0,0,0,8,0,5,5,79,0.9768362944499208,11.65504719997989,12.634313800022937,,,,,2023-04-07_19h59.28.281,FaceAttractiveness,2022.2.5,144.11942312884284,
"images\ LCHEEK_CFD_WF_002_004_N.png
",0,0,0,8,0,6,6,34,0.5628040072731014,12.634313800022937,13.198120700020809,,,,,2023-04-07_19h59.28.281,FaceAttractiveness,2022.2.5,144.11942312884284,
images\ RCHEEK_CFD_BF_214_308_N.png,0,0,0,8,0,7,7,84,0.9666542602460406,13.198120700020809,14.169427199987695,,,,,2023-04-07_19h59.28.281,FaceAttractiveness,2022.2.5,144.11942312884284,
images\ LIP_CFD_BM_213_134_N.png,0,0,0,8,0,8,8,48,0.951678146650078,14.169427199987695,15.12060660001589,,,,,2023-04-07_19h59.28.281,FaceAttractiveness,2022.2.5,144.11942312884284,
images\ NASALTIP_CFD_BF_224_002_N.png,0,0,0,8,0,9,9,66,0.9802493499092688,15.12060660001589,16.09966439998243,,,,,2023-04-07_19h59.28.281,FaceAttractiveness,2022.2.5,144.11942312884284,
images\ RCHEEK_CFD_BM_213_134_N.png,0,0,0,8,0,10,10,86,0.8953699886389035,16.09966439998243,16.995792099973187,,,,,2023-04-07_19h59.28.281,FaceAttractiveness,2022.2.5,144.11942312884284,
"images\ NASALTIP_CFD_BM_234_172_N.png
",0,0,0,8,0,11,11,68,0.6975847768421278,16.995792099973187,17.697808100027032,,,,,2023-04-07_19h59.28.281,FaceAttractiveness,2022.2.5,144.11942312884284,
images\ NASALTIP_CFD_LM_203_026_N.png,0,0,0,8,0,12,12,71,0.8226375525796719,17.697808100027032,18.523331600008532,,,,,2023-04-07_19h59.28.281,FaceAttractiveness,2022.2.5,144.11942312884284,
images\ RCHEEK_CFD_WF_200_099_N.png,0,0,0,8,0,13,13,92,0.8383004068251019,18.523331600008532,19.363751799974125,,,,,2023-04-07_19h59.28.281,FaceAttractiveness,2022.2.5,144.11942312884284,
images\ LCHEEK_CFD_AF_245_143_N.png,0,0,0,8,0,14,14,25,0.958272681315113,19.363751799974125,20.32162539998535,,,,,2023-04-07_19h59.28.281,FaceAttractiveness,2022.2.5,144.11942312884284,
"images\ LIP_CFD_AM_233_236_N.png
",0,0,0,8,0,15,15,45,0.7432034977401796,20.32162539998535,21.064745199983008,,,,,2023-04-07_19h59.28.281,FaceAttractiveness,2022.2.5,144.11942312884284,
images\ NASALTIP_087_M_M_N_A.png,0,0,0,8,0,16,16,59,0.5773141225133034,21.064745199983008,21.64112759998534,,,,,2023-04-07_19h59.28.281,FaceAttractiveness,2022.2.5,144.11942312884284,
images\FOREHEAD_CFD_BF_214_308_N.png,0,0,0,8,0,17,17,8,0.7297109176465195,21.64112759998534,22.371076399984304,,,,,2023-04-07_19h59.28.281,FaceAttractiveness,2022.2.5,144.11942312884284,
images\ NASALTIP_CFD_BF_214_308_N.png,0,0,0,8,0,18,18,65,0.7993934435260186,22.371076399984304,23.169051399978343,,,,,2023-04-07_19h59.28.281,FaceAttractiveness,2022.2.5,144.11942312884284,
images\ LCHEEK_CFD_AF_231_357_N.png,0,0,0,8,0,19,19,23,0.7528704696532422,23.169051399978343,23.92642039997736,,,,,2023-04-07_19h59.28.281,FaceAttractiveness,2022.2.5,144.11942312884284,
images\FOREHEAD_CFD_WM_212_097_N.png,0,0,0,8,0,20,20,18,0.9824888551311665,23.92642039997736,24.91226569999708,,,,,2023-04-07_19h59.28.281,FaceAttractiveness,2022.2.5,144.11942312884284,
images\ LIP_CFD_WF_200_099_N.png,0,0,0,8,0,21,21,54,0.7297980728374353,24.91226569999708,25.641869899991434,,,,,2023-04-07_19h59.28.281,FaceAttractiveness,2022.2.5,144.11942312884284,
images\FOREHEAD_CFD_LM_203_026_N.png,0,0,0,8,0,22,22,14,0.7430798107494796,25.641869899991434,26.384085699974094,,,,,2023-04-07_19h59.28.281,FaceAttractiveness,2022.2.5,144.11942312884284,
images\ LCHEEK_CFD_AF_237_223_N.png,0,0,0,8,0,23,23,24,0.7118517164804035,26.384085699974094,27.100372200016864,,,,,2023-04-07_19h59.28.281,FaceAttractiveness,2022.2.5,144.11942312884284,
images\ LIP_CFD_LF_224_176_N.png,0,0,0,8,0,24,24,50,0.981450478480929,27.100372200016864,28.085620299971197,,,,,2023-04-07_19h59.28.281,FaceAttractiveness,2022.2.5,144.11942312884284,
images\ NASALTIP_CFD_AF_231_357_N.png,0,0,0,8,0,25,25,61,0.5437819641676798,28.085620299971197,28.634018399985507,,,,,2023-04-07_19h59.28.281,FaceAttractiveness,2022.2.5,144.11942312884284,
images\ RCHEEK_CFD_LF_224_176_N.png,0,0,0,8,0,26,26,88,0.9228912974101853,28.634018399985507,29.557980299985502,,,,,2023-04-07_19h59.28.281,FaceAttractiveness,2022.2.5,144.11942312884284,
images\ LCHEEK_CFD_WF_250_167_N.png,0,0,0,8,0,27,27,36,0.5537710821225037,29.557980299985502,30.113414700026624,,,,,2023-04-07_19h59.28.281,FaceAttractiveness,2022.2.5,144.11942312884284,
images\ NASALTIP_CFD_WF_250_167_N.png,0,0,0,8,0,28,28,74,0.7170335157667449,30.113414700026624,30.835310199996457,,,,,2023-04-07_19h59.28.281,FaceAttractiveness,2022.2.5,144.11942312884284,
images\ NASALTIP_CFD_LM_201_057_N.png,0,0,0,8,0,29,29,70,0.6333238692787309,30.835310199996457,31.46768499998143,,,,,2023-04-07_19h59.28.281,FaceAttractiveness,2022.2.5,144.11942312884284,
images\ LIP_CFD_BF_224_002_N.png,0,0,0,8,0,30,30,47,0.7587828003372827,31.46768499998143,32.23234320001211,,,,,2023-04-07_19h59.28.281,FaceAttractiveness,2022.2.5,144.11942312884284,
"images\ LIP_CFD_WF_002_004_N.png
",0,0,0,8,0,31,31,53,0.5751213325488221,32.23234320001211,32.807961700018495,,,,,2023-04-07_19h59.28.281,FaceAttractiveness,2022.2.5,144.11942312884284,
images\ LIP_CFD_WF_250_167_N.png,0,0,0,8,0,32,32,55,0.6936684053070161,32.807961700018495,33.503604000026826,,,,,2023-04-07_19h59.28.281,FaceAttractiveness,2022.2.5,144.11942312884284,
images\ LCHEEK_CFD_BM_213_134_N.png,0,0,0,8,0,33,33,29,0.6636031286130932,33.503604000026826,34.16884900000878,,,,,2023-04-07_19h59.28.281,FaceAttractiveness,2022.2.5,144.11942312884284,
images\FOREHEAD_CFD_WF_200_099_N.png,0,0,0,8,0,34,34,16,0.5493804317289759,34.16884900000878,34.7174485999858,,,,,2023-04-07_19h59.28.281,FaceAttractiveness,2022.2.5,144.11942312884284,
images\FOREHEAD_006_M_F_N_A.png,0,0,0,8,0,35,35,0,0.939064836079533,34.7174485999858,35.662193699972704,,,,,2023-04-07_19h59.28.281,FaceAttractiveness,2022.2.5,144.11942312884284,
,,,,,,,,,0.7839051097452916,35.662193699972704,,,,,,,,,,
