Task,LeftLabel,RightLabel,faceImages,RatingBlockOrder.thisRepN,RatingBlockOrder.thisTrialN,RatingBlockOrder.thisN,RatingBlockOrder.thisIndex,originalFaceTrials.thisRepN,originalFaceTrials.thisTrialN,originalFaceTrials.thisN,originalFaceTrials.thisIndex,face_image_q.started,slider_trustworthy.started,text_trustworthy.started,slider_aggressive.started,text_aggressive.started,Confirm.started,mouse_7.started,Name,Gender,Age,Ethnicity,date,expName,psychopyVersion,frameRate,
treatment,0% Never,100% Always,images\FOREHEAD_CFD_AF_245_143_N.png,0,0,0,0,0,0,0,6,,,,,,,,,,,,2023-04-07_19h46.16.377,FaceAttractiveness,2022.2.5,145.23400099087033,
treatment,0% Never,100% Always,images\ LIP_087_M_M_N_A.png,0,0,0,0,0,1,1,40,,,,,,,,,,,,2023-04-07_19h46.16.377,FaceAttractiveness,2022.2.5,145.23400099087033,
treatment,0% Never,100% Always,"images\ LIP_136_M_M_N_A.png
",0,0,0,0,0,2,2,41,,,,,,,,,,,,2023-04-07_19h46.16.377,FaceAttractiveness,2022.2.5,145.23400099087033,
treatment,0% Never,100% Always,images\ RCHEEK_CFD_WM_212_097_N.png,0,0,0,0,0,3,3,94,,,,,,,,,,,,2023-04-07_19h46.16.377,FaceAttractiveness,2022.2.5,145.23400099087033,
treatment,0% Never,100% Always,"images\ RCHEEK_136_M_M_N_A.png
",0,0,0,0,0,4,4,79,,,,,,,,,,,,2023-04-07_19h46.16.377,FaceAttractiveness,2022.2.5,145.23400099087033,
treatment,0% Never,100% Always,images\FOREHEAD_CFD_AM_233_236_N.png,0,0,0,0,0,5,5,7,,,,,,,,,,,,2023-04-07_19h46.16.377,FaceAttractiveness,2022.2.5,145.23400099087033,
treatment,0% Never,100% Always,images\ NASALTIP_CFD_BM_213_134_N.png,0,0,0,0,0,6,6,67,,,,,,,,,,,,2023-04-07_19h46.16.377,FaceAttractiveness,2022.2.5,145.23400099087033,
treatment,0% Never,100% Always,"images\ LCHEEK_CFD_WF_002_004_N.png
",0,0,0,0,0,7,7,34,,,,,,,,,,,,2023-04-07_19h46.16.377,FaceAttractiveness,2022.2.5,145.23400099087033,
treatment,0% Never,100% Always,images\ LIP_006_M_F_N_A.png,0,0,0,0,0,8,8,38,,,,,,,,,,,,2023-04-07_19h46.16.377,FaceAttractiveness,2022.2.5,145.23400099087033,
treatment,0% Never,100% Always,"images\ RCHEEK_CFD_AM_233_236_N.png
",0,0,0,0,0,9,9,83,,,,,,,,,,,,2023-04-07_19h46.16.377,FaceAttractiveness,2022.2.5,145.23400099087033,
treatment,0% Never,100% Always,images\ LIP_CFD_WF_200_099_N.png,0,0,0,0,0,10,10,54,,,,,,,,,,,,2023-04-07_19h46.16.377,FaceAttractiveness,2022.2.5,145.23400099087033,
treatment,0% Never,100% Always,images\ NASALTIP_CFD_WM_212_097_N.png,0,0,0,0,0,11,11,75,,,,,,,,,,,,2023-04-07_19h46.16.377,FaceAttractiveness,2022.2.5,145.23400099087033,
treatment,0% Never,100% Always,images\ RCHEEK_CFD_AF_237_223_N.png,0,0,0,0,0,12,12,81,,,,,,,,,,,,2023-04-07_19h46.16.377,FaceAttractiveness,2022.2.5,145.23400099087033,
treatment,0% Never,100% Always,images\ RCHEEK_006_M_F_N_A.png,0,0,0,0,0,13,13,76,,,,,,,,,,,,2023-04-07_19h46.16.377,FaceAttractiveness,2022.2.5,145.23400099087033,
treatment,0% Never,100% Always,images\FOREHEAD_087_M_M_N_A.png,0,0,0,0,0,14,14,2,,,,,,,,,,,,2023-04-07_19h46.16.377,FaceAttractiveness,2022.2.5,145.23400099087033,
treatment,0% Never,100% Always,images\ NASALTIP_CFD_LM_201_057_N.png,0,0,0,0,0,15,15,70,,,,,,,,,,,,2023-04-07_19h46.16.377,FaceAttractiveness,2022.2.5,145.23400099087033,
treatment,0% Never,100% Always,"images\ NASALTIP_CFD_AM_233_236_N.png
",0,0,0,0,0,16,16,64,,,,,,,,,,,,2023-04-07_19h46.16.377,FaceAttractiveness,2022.2.5,145.23400099087033,
treatment,0% Never,100% Always,"images\ NASALTIP_CFD_BM_234_172_N.png
",0,0,0,0,0,17,17,68,,,,,,,,,,,,2023-04-07_19h46.16.377,FaceAttractiveness,2022.2.5,145.23400099087033,
treatment,0% Never,100% Always,images\ RCHEEK_CFD_LF_224_176_N.png,0,0,0,0,0,18,18,88,,,,,,,,,,,,2023-04-07_19h46.16.377,FaceAttractiveness,2022.2.5,145.23400099087033,
treatment,0% Never,100% Always,images\ LCHEEK_CFD_WF_250_167_N.png,0,0,0,0,0,19,19,36,,,,,,,,,,,,2023-04-07_19h46.16.377,FaceAttractiveness,2022.2.5,145.23400099087033,
treatment,0% Never,100% Always,images\ LIP_035_M_F_N_A.png,0,0,0,0,0,20,20,39,,,,,,,,,,,,2023-04-07_19h46.16.377,FaceAttractiveness,2022.2.5,145.23400099087033,
treatment,0% Never,100% Always,images\ LCHEEK_CFD_AF_231_357_N.png,0,0,0,0,0,21,21,23,,,,,,,,,,,,2023-04-07_19h46.16.377,FaceAttractiveness,2022.2.5,145.23400099087033,
treatment,0% Never,100% Always,images\FOREHEAD_CFD_WF_250_167_N.png,0,0,0,0,0,22,22,17,,,,,,,,,,,,2023-04-07_19h46.16.377,FaceAttractiveness,2022.2.5,145.23400099087033,
treatment,0% Never,100% Always,images\ RCHEEK_CFD_WF_200_099_N.png,0,0,0,0,0,23,23,92,,,,,,,,,,,,2023-04-07_19h46.16.377,FaceAttractiveness,2022.2.5,145.23400099087033,
treatment,0% Never,100% Always,images\ RCHEEK_CFD_LM_201_057_N.png,0,0,0,0,0,24,24,89,,,,,,,,,,,,2023-04-07_19h46.16.377,FaceAttractiveness,2022.2.5,145.23400099087033,
treatment,0% Never,100% Always,images\FOREHEAD_035_M_F_N_A.png,0,0,0,0,0,25,25,1,,,,,,,,,,,,2023-04-07_19h46.16.377,FaceAttractiveness,2022.2.5,145.23400099087033,
treatment,0% Never,100% Always,images\ NASALTIP_035_M_F_N_A.png,0,0,0,0,0,26,26,58,,,,,,,,,,,,2023-04-07_19h46.16.377,FaceAttractiveness,2022.2.5,145.23400099087033,
treatment,0% Never,100% Always,images\FOREHEAD_CFD_BM_234_172_N.png,0,0,0,0,0,27,27,11,,,,,,,,,,,,2023-04-07_19h46.16.377,FaceAttractiveness,2022.2.5,145.23400099087033,
treatment,0% Never,100% Always,images\FOREHEAD_CFD_BF_214_308_N.png,0,0,0,0,0,28,28,8,,,,,,,,,,,,2023-04-07_19h46.16.377,FaceAttractiveness,2022.2.5,145.23400099087033,
treatment,0% Never,100% Always,"images\ LIP_CFD_WF_002_004_N.png
",0,0,0,0,0,29,29,53,,,,,,,,,,,,2023-04-07_19h46.16.377,FaceAttractiveness,2022.2.5,145.23400099087033,
treatment,0% Never,100% Always,images\ LCHEEK_CFD_BF_214_308_N.png,0,0,0,0,0,30,30,27,,,,,,,,,,,,2023-04-07_19h46.16.377,FaceAttractiveness,2022.2.5,145.23400099087033,
treatment,0% Never,100% Always,images\ LIP_CFD_LM_201_057_N.png,0,0,0,0,0,31,31,51,,,,,,,,,,,,2023-04-07_19h46.16.377,FaceAttractiveness,2022.2.5,145.23400099087033,
treatment,0% Never,100% Always,images\ LIP_CFD_WM_212_097_N.png,0,0,0,0,0,32,32,56,,,,,,,,,,,,2023-04-07_19h46.16.377,FaceAttractiveness,2022.2.5,145.23400099087033,
treatment,0% Never,100% Always,images\ LCHEEK_CFD_WF_200_099_N.png,0,0,0,0,0,33,33,35,,,,,,,,,,,,2023-04-07_19h46.16.377,FaceAttractiveness,2022.2.5,145.23400099087033,
treatment,0% Never,100% Always,images\ RCHEEK_CFD_BM_213_134_N.png,0,0,0,0,0,34,34,86,,,,,,,,,,,,2023-04-07_19h46.16.377,FaceAttractiveness,2022.2.5,145.23400099087033,
treatment,0% Never,100% Always,images\ LIP_CFD_BF_224_002_N.png,0,0,0,0,0,35,35,47,,,,,,,,,,,,2023-04-07_19h46.16.377,FaceAttractiveness,2022.2.5,145.23400099087033,
treatment,0% Never,100% Always,images\ LIP_CFD_WF_250_167_N.png,0,0,0,0,0,36,36,55,,,,,,,,,,,,2023-04-07_19h46.16.377,FaceAttractiveness,2022.2.5,145.23400099087033,
treatment,0% Never,100% Always,images\FOREHEAD_006_M_F_N_A.png,0,0,0,0,0,37,37,0,,,,,,,,,,,,2023-04-07_19h46.16.377,FaceAttractiveness,2022.2.5,145.23400099087033,
treatment,0% Never,100% Always,images\ LIP_CFD_LF_224_176_N.png,0,0,0,0,0,38,38,50,,,,,,,,,,,,2023-04-07_19h46.16.377,FaceAttractiveness,2022.2.5,145.23400099087033,
treatment,0% Never,100% Always,images\FOREHEAD_CFD_WF_200_099_N.png,0,0,0,0,0,39,39,16,,,,,,,,,,,,2023-04-07_19h46.16.377,FaceAttractiveness,2022.2.5,145.23400099087033,
treatment,0% Never,100% Always,images\ LCHEEK_CFD_LM_203_026_N.png,0,0,0,0,0,40,40,33,,,,,,,,,,,,2023-04-07_19h46.16.377,FaceAttractiveness,2022.2.5,145.23400099087033,
treatment,0% Never,100% Always,images\ RCHEEK_035_M_F_N_A.png,0,0,0,0,0,41,41,77,,,,,,,,,,,,2023-04-07_19h46.16.377,FaceAttractiveness,2022.2.5,145.23400099087033,
treatment,0% Never,100% Always,images\FOREHEAD_CFD_WM_212_097_N.png,0,0,0,0,0,42,42,18,,,,,,,,,,,,2023-04-07_19h46.16.377,FaceAttractiveness,2022.2.5,145.23400099087033,
treatment,0% Never,100% Always,images\ RCHEEK_CFD_BF_214_308_N.png,0,0,0,0,0,43,43,84,,,,,,,,,,,,2023-04-07_19h46.16.377,FaceAttractiveness,2022.2.5,145.23400099087033,
treatment,0% Never,100% Always,images\ NASALTIP_CFD_WF_200_099_N.png,0,0,0,0,0,44,44,73,,,,,,,,,,,,2023-04-07_19h46.16.377,FaceAttractiveness,2022.2.5,145.23400099087033,
treatment,0% Never,100% Always,images\ LCHEEK_CFD_LM_201_057_N.png,0,0,0,0,0,45,45,32,,,,,,,,,,,,2023-04-07_19h46.16.377,FaceAttractiveness,2022.2.5,145.23400099087033,
treatment,0% Never,100% Always,images\FOREHEAD_CFD_AF_231_357_N.png,0,0,0,0,0,46,46,4,,,,,,,,,,,,2023-04-07_19h46.16.377,FaceAttractiveness,2022.2.5,145.23400099087033,
treatment,0% Never,100% Always,images\ RCHEEK_CFD_LM_203_026_N.png,0,0,0,0,0,47,47,90,,,,,,,,,,,,2023-04-07_19h46.16.377,FaceAttractiveness,2022.2.5,145.23400099087033,
treatment,0% Never,100% Always,images\FOREHEAD_CFD_AF_237_223_N.png,0,0,0,0,0,48,48,5,,,,,,,,,,,,2023-04-07_19h46.16.377,FaceAttractiveness,2022.2.5,145.23400099087033,
treatment,0% Never,100% Always,images\ LCHEEK_CFD_BM_213_134_N.png,0,0,0,0,0,49,49,29,,,,,,,,,,,,2023-04-07_19h46.16.377,FaceAttractiveness,2022.2.5,145.23400099087033,
treatment,0% Never,100% Always,images\FOREHEAD_CFD_LM_203_026_N.png,0,0,0,0,0,50,50,14,,,,,,,,,,,,2023-04-07_19h46.16.377,FaceAttractiveness,2022.2.5,145.23400099087033,
treatment,0% Never,100% Always,images\FOREHEAD_CFD_BF_224_002_N.png,0,0,0,0,0,51,51,9,,,,,,,,,,,,2023-04-07_19h46.16.377,FaceAttractiveness,2022.2.5,145.23400099087033,
treatment,0% Never,100% Always,images\ NASALTIP_CFD_LM_203_026_N.png,0,0,0,0,0,52,52,71,,,,,,,,,,,,2023-04-07_19h46.16.377,FaceAttractiveness,2022.2.5,145.23400099087033,
treatment,0% Never,100% Always,images\ RCHEEK_CFD_AF_245_143_N.png,0,0,0,0,0,53,53,82,,,,,,,,,,,,2023-04-07_19h46.16.377,FaceAttractiveness,2022.2.5,145.23400099087033,
treatment,0% Never,100% Always,"images\ LCHEEK_CFD_AM_233_236_N.png
",0,0,0,0,0,54,54,26,,,,,,,,,,,,2023-04-07_19h46.16.377,FaceAttractiveness,2022.2.5,145.23400099087033,
treatment,0% Never,100% Always,"images\ RCHEEK_CFD_WF_002_004_N.png
",0,0,0,0,0,55,55,91,,,,,,,,,,,,2023-04-07_19h46.16.377,FaceAttractiveness,2022.2.5,145.23400099087033,
treatment,0% Never,100% Always,images\ NASALTIP_CFD_AF_245_143_N.png,0,0,0,0,0,56,56,63,,,,,,,,,,,,2023-04-07_19h46.16.377,FaceAttractiveness,2022.2.5,145.23400099087033,
treatment,0% Never,100% Always,images\ RCHEEK_087_M_M_N_A.png,0,0,0,0,0,57,57,78,,,,,,,,,,,,2023-04-07_19h46.16.377,FaceAttractiveness,2022.2.5,145.23400099087033,
treatment,0% Never,100% Always,images\ NASALTIP_CFD_BF_214_308_N.png,0,0,0,0,0,58,58,65,,,,,,,,,,,,2023-04-07_19h46.16.377,FaceAttractiveness,2022.2.5,145.23400099087033,
treatment,0% Never,100% Always,images\ NASALTIP_CFD_AF_237_223_N.png,0,0,0,0,0,59,59,62,,,,,,,,,,,,2023-04-07_19h46.16.377,FaceAttractiveness,2022.2.5,145.23400099087033,
treatment,0% Never,100% Always,images\FOREHEAD_136_M_M_N_A.png,0,0,0,0,0,60,60,3,,,,,,,,,,,,2023-04-07_19h46.16.377,FaceAttractiveness,2022.2.5,145.23400099087033,
treatment,0% Never,100% Always,"images\ LCHEEK_CFD_BM_234_172_N.png
",0,0,0,0,0,61,61,30,,,,,,,,,,,,2023-04-07_19h46.16.377,FaceAttractiveness,2022.2.5,145.23400099087033,
treatment,0% Never,100% Always,images\ LCHEEK_CFD_AF_237_223_N.png,0,0,0,0,0,62,62,24,,,,,,,,,,,,2023-04-07_19h46.16.377,FaceAttractiveness,2022.2.5,145.23400099087033,
treatment,0% Never,100% Always,"images\ LCHEEK_136_M_M_N_A.png
",0,0,0,0,0,63,63,22,,,,,,,,,,,,2023-04-07_19h46.16.377,FaceAttractiveness,2022.2.5,145.23400099087033,
treatment,0% Never,100% Always,images\ LCHEEK_CFD_WM_212_097_N.png,0,0,0,0,0,64,64,37,,,,,,,,,,,,2023-04-07_19h46.16.377,FaceAttractiveness,2022.2.5,145.23400099087033,
treatment,0% Never,100% Always,images\ NASALTIP_CFD_AF_231_357_N.png,0,0,0,0,0,65,65,61,,,,,,,,,,,,2023-04-07_19h46.16.377,FaceAttractiveness,2022.2.5,145.23400099087033,
treatment,0% Never,100% Always,images\ LIP_CFD_LM_203_026_N.png,0,0,0,0,0,66,66,52,,,,,,,,,,,,2023-04-07_19h46.16.377,FaceAttractiveness,2022.2.5,145.23400099087033,
treatment,0% Never,100% Always,images\ LCHEEK_CFD_AF_245_143_N.png,0,0,0,0,0,67,67,25,,,,,,,,,,,,2023-04-07_19h46.16.377,FaceAttractiveness,2022.2.5,145.23400099087033,
treatment,0% Never,100% Always,images\ RCHEEK_CFD_BF_224_002_N.png,0,0,0,0,0,68,68,85,,,,,,,,,,,,2023-04-07_19h46.16.377,FaceAttractiveness,2022.2.5,145.23400099087033,
treatment,0% Never,100% Always,images\ LCHEEK_CFD_BF_224_002_N.png,0,0,0,0,0,69,69,28,,,,,,,,,,,,2023-04-07_19h46.16.377,FaceAttractiveness,2022.2.5,145.23400099087033,
treatment,0% Never,100% Always,"images\ LIP_CFD_BM_234_172_N.png
",0,0,0,0,0,70,70,49,,,,,,,,,,,,2023-04-07_19h46.16.377,FaceAttractiveness,2022.2.5,145.23400099087033,
treatment,0% Never,100% Always,images\ NASALTIP_087_M_M_N_A.png,0,0,0,0,0,71,71,59,,,,,,,,,,,,2023-04-07_19h46.16.377,FaceAttractiveness,2022.2.5,145.23400099087033,
treatment,0% Never,100% Always,images\ RCHEEK_CFD_AF_231_357_N.png,0,0,0,0,0,72,72,80,,,,,,,,,,,,2023-04-07_19h46.16.377,FaceAttractiveness,2022.2.5,145.23400099087033,
treatment,0% Never,100% Always,images\FOREHEAD_CFD_WF_002_004_N.png,0,0,0,0,0,73,73,15,,,,,,,,,,,,2023-04-07_19h46.16.377,FaceAttractiveness,2022.2.5,145.23400099087033,
treatment,0% Never,100% Always,images\ LCHEEK_CFD_LF_224_176_N.png,0,0,0,0,0,74,74,31,,,,,,,,,,,,2023-04-07_19h46.16.377,FaceAttractiveness,2022.2.5,145.23400099087033,
treatment,0% Never,100% Always,images\ LCHEEK_035_M_F_N_A.png,0,0,0,0,0,75,75,20,,,,,,,,,,,,2023-04-07_19h46.16.377,FaceAttractiveness,2022.2.5,145.23400099087033,
treatment,0% Never,100% Always,"images\ NASALTIP_CFD_WF_002_004_N.png
",0,0,0,0,0,76,76,72,,,,,,,,,,,,2023-04-07_19h46.16.377,FaceAttractiveness,2022.2.5,145.23400099087033,
treatment,0% Never,100% Always,images\FOREHEAD_CFD_LM_201_057_N.png,0,0,0,0,0,77,77,13,,,,,,,,,,,,2023-04-07_19h46.16.377,FaceAttractiveness,2022.2.5,145.23400099087033,
treatment,0% Never,100% Always,"images\ NASALTIP_136_M_M_N_A.png
",0,0,0,0,0,78,78,60,,,,,,,,,,,,2023-04-07_19h46.16.377,FaceAttractiveness,2022.2.5,145.23400099087033,
treatment,0% Never,100% Always,"images\ LIP_CFD_AM_233_236_N.png
",0,0,0,0,0,79,79,45,,,,,,,,,,,,2023-04-07_19h46.16.377,FaceAttractiveness,2022.2.5,145.23400099087033,
treatment,0% Never,100% Always,images\FOREHEAD_CFD_BM_213_134_N.png,0,0,0,0,0,80,80,10,,,,,,,,,,,,2023-04-07_19h46.16.377,FaceAttractiveness,2022.2.5,145.23400099087033,
treatment,0% Never,100% Always,images\ NASALTIP_CFD_WF_250_167_N.png,0,0,0,0,0,81,81,74,,,,,,,,,,,,2023-04-07_19h46.16.377,FaceAttractiveness,2022.2.5,145.23400099087033,
treatment,0% Never,100% Always,images\ LCHEEK_087_M_M_N_A.png,0,0,0,0,0,82,82,21,,,,,,,,,,,,2023-04-07_19h46.16.377,FaceAttractiveness,2022.2.5,145.23400099087033,
treatment,0% Never,100% Always,images\ LCHEEK_006_M_F_N_A.png,0,0,0,0,0,83,83,19,,,,,,,,,,,,2023-04-07_19h46.16.377,FaceAttractiveness,2022.2.5,145.23400099087033,
treatment,0% Never,100% Always,images\ NASALTIP_CFD_BF_224_002_N.png,0,0,0,0,0,84,84,66,,,,,,,,,,,,2023-04-07_19h46.16.377,FaceAttractiveness,2022.2.5,145.23400099087033,
treatment,0% Never,100% Always,images\ LIP_CFD_BF_214_308_N.png,0,0,0,0,0,85,85,46,,,,,,,,,,,,2023-04-07_19h46.16.377,FaceAttractiveness,2022.2.5,145.23400099087033,
treatment,0% Never,100% Always,images\FOREHEAD_CFD_LF_224_176_N.png,0,0,0,0,0,86,86,12,,,,,,,,,,,,2023-04-07_19h46.16.377,FaceAttractiveness,2022.2.5,145.23400099087033,
treatment,0% Never,100% Always,images\ NASALTIP_006_M_F_N_A.png,0,0,0,0,0,87,87,57,,,,,,,,,,,,2023-04-07_19h46.16.377,FaceAttractiveness,2022.2.5,145.23400099087033,
treatment,0% Never,100% Always,images\ LIP_CFD_BM_213_134_N.png,0,0,0,0,0,88,88,48,,,,,,,,,,,,2023-04-07_19h46.16.377,FaceAttractiveness,2022.2.5,145.23400099087033,
treatment,0% Never,100% Always,images\ RCHEEK_CFD_WF_250_167_N.png,0,0,0,0,0,89,89,93,,,,,,,,,,,,2023-04-07_19h46.16.377,FaceAttractiveness,2022.2.5,145.23400099087033,
treatment,0% Never,100% Always,images\ LIP_CFD_AF_231_357_N.png,0,0,0,0,0,90,90,42,,,,,,,,,,,,2023-04-07_19h46.16.377,FaceAttractiveness,2022.2.5,145.23400099087033,
treatment,0% Never,100% Always,"images\ RCHEEK_CFD_BM_234_172_N.png
",0,0,0,0,0,91,91,87,,,,,,,,,,,,2023-04-07_19h46.16.377,FaceAttractiveness,2022.2.5,145.23400099087033,
treatment,0% Never,100% Always,images\ NASALTIP_CFD_LF_224_176_N.png,0,0,0,0,0,92,92,69,,,,,,,,,,,,2023-04-07_19h46.16.377,FaceAttractiveness,2022.2.5,145.23400099087033,
treatment,0% Never,100% Always,images\ LIP_CFD_AF_237_223_N.png,0,0,0,0,0,93,93,43,,,,,,,,,,,,2023-04-07_19h46.16.377,FaceAttractiveness,2022.2.5,145.23400099087033,
treatment,0% Never,100% Always,images\ LIP_CFD_AF_245_143_N.png,0,0,0,0,0,94,94,44,,,,,,,,,,,,2023-04-07_19h46.16.377,FaceAttractiveness,2022.2.5,145.23400099087033,
treatment,0% Never,100% Always,images\FOREHEAD_CFD_WF_002_004_N.png,0,0,0,0,1,0,95,15,,,,,,,,,,,,2023-04-07_19h46.16.377,FaceAttractiveness,2022.2.5,145.23400099087033,
treatment,0% Never,100% Always,images\ LCHEEK_CFD_LM_203_026_N.png,0,0,0,0,1,1,96,33,,,,,,,,,,,,2023-04-07_19h46.16.377,FaceAttractiveness,2022.2.5,145.23400099087033,
treatment,0% Never,100% Always,images\ NASALTIP_CFD_LM_203_026_N.png,0,0,0,0,1,2,97,71,,,,,,,,,,,,2023-04-07_19h46.16.377,FaceAttractiveness,2022.2.5,145.23400099087033,
treatment,0% Never,100% Always,images\ LCHEEK_CFD_LM_201_057_N.png,0,0,0,0,1,3,98,32,,,,,,,,,,,,2023-04-07_19h46.16.377,FaceAttractiveness,2022.2.5,145.23400099087033,
treatment,0% Never,100% Always,images\FOREHEAD_CFD_AM_233_236_N.png,0,0,0,0,1,4,99,7,,,,,,,,,,,,2023-04-07_19h46.16.377,FaceAttractiveness,2022.2.5,145.23400099087033,
treatment,0% Never,100% Always,images\ RCHEEK_CFD_AF_237_223_N.png,0,0,0,0,1,5,100,81,,,,,,,,,,,,2023-04-07_19h46.16.377,FaceAttractiveness,2022.2.5,145.23400099087033,
treatment,0% Never,100% Always,"images\ NASALTIP_CFD_WF_002_004_N.png
",0,0,0,0,1,6,101,72,,,,,,,,,,,,2023-04-07_19h46.16.377,FaceAttractiveness,2022.2.5,145.23400099087033,
treatment,0% Never,100% Always,images\ NASALTIP_CFD_BF_214_308_N.png,0,0,0,0,1,7,102,65,,,,,,,,,,,,2023-04-07_19h46.16.377,FaceAttractiveness,2022.2.5,145.23400099087033,
treatment,0% Never,100% Always,images\ LCHEEK_087_M_M_N_A.png,0,0,0,0,1,8,103,21,,,,,,,,,,,,2023-04-07_19h46.16.377,FaceAttractiveness,2022.2.5,145.23400099087033,
treatment,0% Never,100% Always,images\ RCHEEK_CFD_BM_213_134_N.png,0,0,0,0,1,9,104,86,,,,,,,,,,,,2023-04-07_19h46.16.377,FaceAttractiveness,2022.2.5,145.23400099087033,
treatment,0% Never,100% Always,images\ LCHEEK_CFD_WM_212_097_N.png,0,0,0,0,1,10,105,37,,,,,,,,,,,,2023-04-07_19h46.16.377,FaceAttractiveness,2022.2.5,145.23400099087033,
treatment,0% Never,100% Always,images\ RCHEEK_CFD_AF_231_357_N.png,0,0,0,0,1,11,106,80,,,,,,,,,,,,2023-04-07_19h46.16.377,FaceAttractiveness,2022.2.5,145.23400099087033,
treatment,0% Never,100% Always,images\ RCHEEK_CFD_WF_200_099_N.png,0,0,0,0,1,12,107,92,,,,,,,,,,,,2023-04-07_19h46.16.377,FaceAttractiveness,2022.2.5,145.23400099087033,
treatment,0% Never,100% Always,images\ NASALTIP_CFD_LM_201_057_N.png,0,0,0,0,1,13,108,70,,,,,,,,,,,,2023-04-07_19h46.16.377,FaceAttractiveness,2022.2.5,145.23400099087033,
treatment,0% Never,100% Always,"images\ RCHEEK_CFD_WF_002_004_N.png
",0,0,0,0,1,14,109,91,,,,,,,,,,,,2023-04-07_19h46.16.377,FaceAttractiveness,2022.2.5,145.23400099087033,
treatment,0% Never,100% Always,images\ LCHEEK_006_M_F_N_A.png,0,0,0,0,1,15,110,19,,,,,,,,,,,,2023-04-07_19h46.16.377,FaceAttractiveness,2022.2.5,145.23400099087033,
treatment,0% Never,100% Always,images\ LIP_006_M_F_N_A.png,0,0,0,0,1,16,111,38,,,,,,,,,,,,2023-04-07_19h46.16.377,FaceAttractiveness,2022.2.5,145.23400099087033,
treatment,0% Never,100% Always,images\ RCHEEK_CFD_LM_201_057_N.png,0,0,0,0,1,17,112,89,,,,,,,,,,,,2023-04-07_19h46.16.377,FaceAttractiveness,2022.2.5,145.23400099087033,
treatment,0% Never,100% Always,images\ NASALTIP_035_M_F_N_A.png,0,0,0,0,1,18,113,58,,,,,,,,,,,,2023-04-07_19h46.16.377,FaceAttractiveness,2022.2.5,145.23400099087033,
treatment,0% Never,100% Always,images\ LCHEEK_CFD_AF_237_223_N.png,0,0,0,0,1,19,114,24,,,,,,,,,,,,2023-04-07_19h46.16.377,FaceAttractiveness,2022.2.5,145.23400099087033,
treatment,0% Never,100% Always,images\ LIP_CFD_AF_231_357_N.png,0,0,0,0,1,20,115,42,,,,,,,,,,,,2023-04-07_19h46.16.377,FaceAttractiveness,2022.2.5,145.23400099087033,
treatment,0% Never,100% Always,images\ LIP_CFD_BF_214_308_N.png,0,0,0,0,1,21,116,46,,,,,,,,,,,,2023-04-07_19h46.16.377,FaceAttractiveness,2022.2.5,145.23400099087033,
treatment,0% Never,100% Always,images\ NASALTIP_CFD_AF_231_357_N.png,0,0,0,0,1,22,117,61,,,,,,,,,,,,2023-04-07_19h46.16.377,FaceAttractiveness,2022.2.5,145.23400099087033,
treatment,0% Never,100% Always,images\ LIP_CFD_BF_224_002_N.png,0,0,0,0,1,23,118,47,,,,,,,,,,,,2023-04-07_19h46.16.377,FaceAttractiveness,2022.2.5,145.23400099087033,
treatment,0% Never,100% Always,images\ LIP_CFD_LM_201_057_N.png,0,0,0,0,1,24,119,51,,,,,,,,,,,,2023-04-07_19h46.16.377,FaceAttractiveness,2022.2.5,145.23400099087033,
treatment,0% Never,100% Always,images\ LIP_CFD_AF_245_143_N.png,0,0,0,0,1,25,120,44,,,,,,,,,,,,2023-04-07_19h46.16.377,FaceAttractiveness,2022.2.5,145.23400099087033,
treatment,0% Never,100% Always,images\ RCHEEK_CFD_AF_245_143_N.png,0,0,0,0,1,26,121,82,,,,,,,,,,,,2023-04-07_19h46.16.377,FaceAttractiveness,2022.2.5,145.23400099087033,
treatment,0% Never,100% Always,images\ NASALTIP_006_M_F_N_A.png,0,0,0,0,1,27,122,57,,,,,,,,,,,,2023-04-07_19h46.16.377,FaceAttractiveness,2022.2.5,145.23400099087033,
treatment,0% Never,100% Always,"images\ NASALTIP_CFD_BM_234_172_N.png
",0,0,0,0,1,28,123,68,,,,,,,,,,,,2023-04-07_19h46.16.377,FaceAttractiveness,2022.2.5,145.23400099087033,
treatment,0% Never,100% Always,images\FOREHEAD_CFD_AF_245_143_N.png,0,0,0,0,1,29,124,6,,,,,,,,,,,,2023-04-07_19h46.16.377,FaceAttractiveness,2022.2.5,145.23400099087033,
treatment,0% Never,100% Always,images\ RCHEEK_CFD_LM_203_026_N.png,0,0,0,0,1,30,125,90,,,,,,,,,,,,2023-04-07_19h46.16.377,FaceAttractiveness,2022.2.5,145.23400099087033,
treatment,0% Never,100% Always,images\ LCHEEK_CFD_AF_231_357_N.png,0,0,0,0,1,31,126,23,,,,,,,,,,,,2023-04-07_19h46.16.377,FaceAttractiveness,2022.2.5,145.23400099087033,
treatment,0% Never,100% Always,images\FOREHEAD_CFD_BM_213_134_N.png,0,0,0,0,1,32,127,10,,,,,,,,,,,,2023-04-07_19h46.16.377,FaceAttractiveness,2022.2.5,145.23400099087033,
treatment,0% Never,100% Always,images\ LIP_CFD_LM_203_026_N.png,0,0,0,0,1,33,128,52,,,,,,,,,,,,2023-04-07_19h46.16.377,FaceAttractiveness,2022.2.5,145.23400099087033,
treatment,0% Never,100% Always,"images\ LCHEEK_136_M_M_N_A.png
",0,0,0,0,1,34,129,22,,,,,,,,,,,,2023-04-07_19h46.16.377,FaceAttractiveness,2022.2.5,145.23400099087033,
treatment,0% Never,100% Always,images\FOREHEAD_CFD_WF_250_167_N.png,0,0,0,0,1,35,130,17,,,,,,,,,,,,2023-04-07_19h46.16.377,FaceAttractiveness,2022.2.5,145.23400099087033,
treatment,0% Never,100% Always,images\ LIP_CFD_LF_224_176_N.png,0,0,0,0,1,36,131,50,,,,,,,,,,,,2023-04-07_19h46.16.377,FaceAttractiveness,2022.2.5,145.23400099087033,
treatment,0% Never,100% Always,images\FOREHEAD_136_M_M_N_A.png,0,0,0,0,1,37,132,3,,,,,,,,,,,,2023-04-07_19h46.16.377,FaceAttractiveness,2022.2.5,145.23400099087033,
treatment,0% Never,100% Always,"images\ RCHEEK_CFD_AM_233_236_N.png
",0,0,0,0,1,38,133,83,,,,,,,,,,,,2023-04-07_19h46.16.377,FaceAttractiveness,2022.2.5,145.23400099087033,
treatment,0% Never,100% Always,images\ RCHEEK_087_M_M_N_A.png,0,0,0,0,1,39,134,78,,,,,,,,,,,,2023-04-07_19h46.16.377,FaceAttractiveness,2022.2.5,145.23400099087033,
treatment,0% Never,100% Always,images\ LCHEEK_035_M_F_N_A.png,0,0,0,0,1,40,135,20,,,,,,,,,,,,2023-04-07_19h46.16.377,FaceAttractiveness,2022.2.5,145.23400099087033,
treatment,0% Never,100% Always,"images\ RCHEEK_CFD_BM_234_172_N.png
",0,0,0,0,1,41,136,87,,,,,,,,,,,,2023-04-07_19h46.16.377,FaceAttractiveness,2022.2.5,145.23400099087033,
treatment,0% Never,100% Always,images\FOREHEAD_CFD_WF_200_099_N.png,0,0,0,0,1,42,137,16,,,,,,,,,,,,2023-04-07_19h46.16.377,FaceAttractiveness,2022.2.5,145.23400099087033,
treatment,0% Never,100% Always,images\ RCHEEK_CFD_WF_250_167_N.png,0,0,0,0,1,43,138,93,,,,,,,,,,,,2023-04-07_19h46.16.377,FaceAttractiveness,2022.2.5,145.23400099087033,
treatment,0% Never,100% Always,images\ RCHEEK_CFD_LF_224_176_N.png,0,0,0,0,1,44,139,88,,,,,,,,,,,,2023-04-07_19h46.16.377,FaceAttractiveness,2022.2.5,145.23400099087033,
treatment,0% Never,100% Always,images\FOREHEAD_006_M_F_N_A.png,0,0,0,0,1,45,140,0,,,,,,,,,,,,2023-04-07_19h46.16.377,FaceAttractiveness,2022.2.5,145.23400099087033,
treatment,0% Never,100% Always,"images\ RCHEEK_136_M_M_N_A.png
",0,0,0,0,1,46,141,79,,,,,,,,,,,,2023-04-07_19h46.16.377,FaceAttractiveness,2022.2.5,145.23400099087033,
treatment,0% Never,100% Always,"images\ LIP_CFD_BM_234_172_N.png
",0,0,0,0,1,47,142,49,,,,,,,,,,,,2023-04-07_19h46.16.377,FaceAttractiveness,2022.2.5,145.23400099087033,
treatment,0% Never,100% Always,images\ LCHEEK_CFD_BF_224_002_N.png,0,0,0,0,1,48,143,28,,,,,,,,,,,,2023-04-07_19h46.16.377,FaceAttractiveness,2022.2.5,145.23400099087033,
treatment,0% Never,100% Always,images\ LIP_035_M_F_N_A.png,0,0,0,0,1,49,144,39,,,,,,,,,,,,2023-04-07_19h46.16.377,FaceAttractiveness,2022.2.5,145.23400099087033,
treatment,0% Never,100% Always,"images\ LIP_CFD_WF_002_004_N.png
",0,0,0,0,1,50,145,53,,,,,,,,,,,,2023-04-07_19h46.16.377,FaceAttractiveness,2022.2.5,145.23400099087033,
treatment,0% Never,100% Always,images\FOREHEAD_CFD_BF_224_002_N.png,0,0,0,0,1,51,146,9,,,,,,,,,,,,2023-04-07_19h46.16.377,FaceAttractiveness,2022.2.5,145.23400099087033,
treatment,0% Never,100% Always,images\ NASALTIP_CFD_AF_245_143_N.png,0,0,0,0,1,52,147,63,,,,,,,,,,,,2023-04-07_19h46.16.377,FaceAttractiveness,2022.2.5,145.23400099087033,
treatment,0% Never,100% Always,images\FOREHEAD_CFD_WM_212_097_N.png,0,0,0,0,1,53,148,18,,,,,,,,,,,,2023-04-07_19h46.16.377,FaceAttractiveness,2022.2.5,145.23400099087033,
treatment,0% Never,100% Always,"images\ NASALTIP_CFD_AM_233_236_N.png
",0,0,0,0,1,54,149,64,,,,,,,,,,,,2023-04-07_19h46.16.377,FaceAttractiveness,2022.2.5,145.23400099087033,
treatment,0% Never,100% Always,"images\ LIP_136_M_M_N_A.png
",0,0,0,0,1,55,150,41,,,,,,,,,,,,2023-04-07_19h46.16.377,FaceAttractiveness,2022.2.5,145.23400099087033,
treatment,0% Never,100% Always,images\FOREHEAD_CFD_LM_203_026_N.png,0,0,0,0,1,56,151,14,,,,,,,,,,,,2023-04-07_19h46.16.377,FaceAttractiveness,2022.2.5,145.23400099087033,
treatment,0% Never,100% Always,images\FOREHEAD_035_M_F_N_A.png,0,0,0,0,1,57,152,1,,,,,,,,,,,,2023-04-07_19h46.16.377,FaceAttractiveness,2022.2.5,145.23400099087033,
treatment,0% Never,100% Always,images\ RCHEEK_035_M_F_N_A.png,0,0,0,0,1,58,153,77,,,,,,,,,,,,2023-04-07_19h46.16.377,FaceAttractiveness,2022.2.5,145.23400099087033,
treatment,0% Never,100% Always,images\FOREHEAD_087_M_M_N_A.png,0,0,0,0,1,59,154,2,,,,,,,,,,,,2023-04-07_19h46.16.377,FaceAttractiveness,2022.2.5,145.23400099087033,
treatment,0% Never,100% Always,images\FOREHEAD_CFD_AF_231_357_N.png,0,0,0,0,1,60,155,4,,,,,,,,,,,,2023-04-07_19h46.16.377,FaceAttractiveness,2022.2.5,145.23400099087033,
treatment,0% Never,100% Always,"images\ LCHEEK_CFD_AM_233_236_N.png
",0,0,0,0,1,61,156,26,,,,,,,,,,,,2023-04-07_19h46.16.377,FaceAttractiveness,2022.2.5,145.23400099087033,
treatment,0% Never,100% Always,images\FOREHEAD_CFD_AF_237_223_N.png,0,0,0,0,1,62,157,5,,,,,,,,,,,,2023-04-07_19h46.16.377,FaceAttractiveness,2022.2.5,145.23400099087033,
treatment,0% Never,100% Always,"images\ NASALTIP_136_M_M_N_A.png
",0,0,0,0,1,63,158,60,,,,,,,,,,,,2023-04-07_19h46.16.377,FaceAttractiveness,2022.2.5,145.23400099087033,
treatment,0% Never,100% Always,images\ NASALTIP_087_M_M_N_A.png,0,0,0,0,1,64,159,59,,,,,,,,,,,,2023-04-07_19h46.16.377,FaceAttractiveness,2022.2.5,145.23400099087033,
treatment,0% Never,100% Always,images\ NASALTIP_CFD_AF_237_223_N.png,0,0,0,0,1,65,160,62,,,,,,,,,,,,2023-04-07_19h46.16.377,FaceAttractiveness,2022.2.5,145.23400099087033,
treatment,0% Never,100% Always,images\ NASALTIP_CFD_BF_224_002_N.png,0,0,0,0,1,66,161,66,,,,,,,,,,,,2023-04-07_19h46.16.377,FaceAttractiveness,2022.2.5,145.23400099087033,
treatment,0% Never,100% Always,images\ RCHEEK_006_M_F_N_A.png,0,0,0,0,1,67,162,76,,,,,,,,,,,,2023-04-07_19h46.16.377,FaceAttractiveness,2022.2.5,145.23400099087033,
treatment,0% Never,100% Always,"images\ LCHEEK_CFD_BM_234_172_N.png
",0,0,0,0,1,68,163,30,,,,,,,,,,,,2023-04-07_19h46.16.377,FaceAttractiveness,2022.2.5,145.23400099087033,
treatment,0% Never,100% Always,images\ LIP_CFD_BM_213_134_N.png,0,0,0,0,1,69,164,48,,,,,,,,,,,,2023-04-07_19h46.16.377,FaceAttractiveness,2022.2.5,145.23400099087033,
treatment,0% Never,100% Always,images\ NASALTIP_CFD_BM_213_134_N.png,0,0,0,0,1,70,165,67,,,,,,,,,,,,2023-04-07_19h46.16.377,FaceAttractiveness,2022.2.5,145.23400099087033,
treatment,0% Never,100% Always,images\ RCHEEK_CFD_BF_214_308_N.png,0,0,0,0,1,71,166,84,,,,,,,,,,,,2023-04-07_19h46.16.377,FaceAttractiveness,2022.2.5,145.23400099087033,
treatment,0% Never,100% Always,"images\ LCHEEK_CFD_WF_002_004_N.png
",0,0,0,0,1,72,167,34,,,,,,,,,,,,2023-04-07_19h46.16.377,FaceAttractiveness,2022.2.5,145.23400099087033,
treatment,0% Never,100% Always,images\ LCHEEK_CFD_AF_245_143_N.png,0,0,0,0,1,73,168,25,,,,,,,,,,,,2023-04-07_19h46.16.377,FaceAttractiveness,2022.2.5,145.23400099087033,
treatment,0% Never,100% Always,images\ RCHEEK_CFD_BF_224_002_N.png,0,0,0,0,1,74,169,85,,,,,,,,,,,,2023-04-07_19h46.16.377,FaceAttractiveness,2022.2.5,145.23400099087033,
treatment,0% Never,100% Always,images\ LIP_CFD_AF_237_223_N.png,0,0,0,0,1,75,170,43,,,,,,,,,,,,2023-04-07_19h46.16.377,FaceAttractiveness,2022.2.5,145.23400099087033,
treatment,0% Never,100% Always,images\ LCHEEK_CFD_WF_250_167_N.png,0,0,0,0,1,76,171,36,,,,,,,,,,,,2023-04-07_19h46.16.377,FaceAttractiveness,2022.2.5,145.23400099087033,
treatment,0% Never,100% Always,images\FOREHEAD_CFD_BM_234_172_N.png,0,0,0,0,1,77,172,11,,,,,,,,,,,,2023-04-07_19h46.16.377,FaceAttractiveness,2022.2.5,145.23400099087033,
treatment,0% Never,100% Always,images\ LIP_087_M_M_N_A.png,0,0,0,0,1,78,173,40,,,,,,,,,,,,2023-04-07_19h46.16.377,FaceAttractiveness,2022.2.5,145.23400099087033,
treatment,0% Never,100% Always,"images\ LIP_CFD_AM_233_236_N.png
",0,0,0,0,1,79,174,45,,,,,,,,,,,,2023-04-07_19h46.16.377,FaceAttractiveness,2022.2.5,145.23400099087033,
treatment,0% Never,100% Always,images\ LCHEEK_CFD_BF_214_308_N.png,0,0,0,0,1,80,175,27,,,,,,,,,,,,2023-04-07_19h46.16.377,FaceAttractiveness,2022.2.5,145.23400099087033,
treatment,0% Never,100% Always,images\FOREHEAD_CFD_LF_224_176_N.png,0,0,0,0,1,81,176,12,,,,,,,,,,,,2023-04-07_19h46.16.377,FaceAttractiveness,2022.2.5,145.23400099087033,
treatment,0% Never,100% Always,images\ LCHEEK_CFD_BM_213_134_N.png,0,0,0,0,1,82,177,29,,,,,,,,,,,,2023-04-07_19h46.16.377,FaceAttractiveness,2022.2.5,145.23400099087033,
treatment,0% Never,100% Always,images\ RCHEEK_CFD_WM_212_097_N.png,0,0,0,0,1,83,178,94,,,,,,,,,,,,2023-04-07_19h46.16.377,FaceAttractiveness,2022.2.5,145.23400099087033,
treatment,0% Never,100% Always,images\ LIP_CFD_WF_200_099_N.png,0,0,0,0,1,84,179,54,,,,,,,,,,,,2023-04-07_19h46.16.377,FaceAttractiveness,2022.2.5,145.23400099087033,
treatment,0% Never,100% Always,images\ NASALTIP_CFD_LF_224_176_N.png,0,0,0,0,1,85,180,69,,,,,,,,,,,,2023-04-07_19h46.16.377,FaceAttractiveness,2022.2.5,145.23400099087033,
treatment,0% Never,100% Always,images\FOREHEAD_CFD_BF_214_308_N.png,0,0,0,0,1,86,181,8,,,,,,,,,,,,2023-04-07_19h46.16.377,FaceAttractiveness,2022.2.5,145.23400099087033,
treatment,0% Never,100% Always,images\ LIP_CFD_WF_250_167_N.png,0,0,0,0,1,87,182,55,,,,,,,,,,,,2023-04-07_19h46.16.377,FaceAttractiveness,2022.2.5,145.23400099087033,
treatment,0% Never,100% Always,images\ LCHEEK_CFD_LF_224_176_N.png,0,0,0,0,1,88,183,31,,,,,,,,,,,,2023-04-07_19h46.16.377,FaceAttractiveness,2022.2.5,145.23400099087033,
treatment,0% Never,100% Always,images\ NASALTIP_CFD_WM_212_097_N.png,0,0,0,0,1,89,184,75,,,,,,,,,,,,2023-04-07_19h46.16.377,FaceAttractiveness,2022.2.5,145.23400099087033,
treatment,0% Never,100% Always,images\ NASALTIP_CFD_WF_250_167_N.png,0,0,0,0,1,90,185,74,,,,,,,,,,,,2023-04-07_19h46.16.377,FaceAttractiveness,2022.2.5,145.23400099087033,
treatment,0% Never,100% Always,images\ LIP_CFD_WM_212_097_N.png,0,0,0,0,1,91,186,56,,,,,,,,,,,,2023-04-07_19h46.16.377,FaceAttractiveness,2022.2.5,145.23400099087033,
treatment,0% Never,100% Always,images\ LCHEEK_CFD_WF_200_099_N.png,0,0,0,0,1,92,187,35,,,,,,,,,,,,2023-04-07_19h46.16.377,FaceAttractiveness,2022.2.5,145.23400099087033,
treatment,0% Never,100% Always,images\ NASALTIP_CFD_WF_200_099_N.png,0,0,0,0,1,93,188,73,,,,,,,,,,,,2023-04-07_19h46.16.377,FaceAttractiveness,2022.2.5,145.23400099087033,
treatment,0% Never,100% Always,images\FOREHEAD_CFD_LM_201_057_N.png,0,0,0,0,1,94,189,13,,,,,,,,,,,,2023-04-07_19h46.16.377,FaceAttractiveness,2022.2.5,145.23400099087033,
treatment,0% Never,100% Always,images\ LCHEEK_CFD_BF_224_002_N.png,0,0,0,0,2,0,190,28,,,,,,,,,,,,2023-04-07_19h46.16.377,FaceAttractiveness,2022.2.5,145.23400099087033,
treatment,0% Never,100% Always,images\FOREHEAD_CFD_BM_213_134_N.png,0,0,0,0,2,1,191,10,,,,,,,,,,,,2023-04-07_19h46.16.377,FaceAttractiveness,2022.2.5,145.23400099087033,
treatment,0% Never,100% Always,"images\ NASALTIP_CFD_WF_002_004_N.png
",0,0,0,0,2,2,192,72,,,,,,,,,,,,2023-04-07_19h46.16.377,FaceAttractiveness,2022.2.5,145.23400099087033,
treatment,0% Never,100% Always,images\ NASALTIP_CFD_BF_224_002_N.png,0,0,0,0,2,3,193,66,,,,,,,,,,,,2023-04-07_19h46.16.377,FaceAttractiveness,2022.2.5,145.23400099087033,
treatment,0% Never,100% Always,images\ LIP_006_M_F_N_A.png,0,0,0,0,2,4,194,38,,,,,,,,,,,,2023-04-07_19h46.16.377,FaceAttractiveness,2022.2.5,145.23400099087033,
treatment,0% Never,100% Always,"images\ NASALTIP_CFD_BM_234_172_N.png
",0,0,0,0,2,5,195,68,,,,,,,,,,,,2023-04-07_19h46.16.377,FaceAttractiveness,2022.2.5,145.23400099087033,
treatment,0% Never,100% Always,images\FOREHEAD_CFD_BF_224_002_N.png,0,0,0,0,2,6,196,9,,,,,,,,,,,,2023-04-07_19h46.16.377,FaceAttractiveness,2022.2.5,145.23400099087033,
treatment,0% Never,100% Always,images\ LIP_CFD_LF_224_176_N.png,0,0,0,0,2,7,197,50,,,,,,,,,,,,2023-04-07_19h46.16.377,FaceAttractiveness,2022.2.5,145.23400099087033,
treatment,0% Never,100% Always,images\ LCHEEK_CFD_BM_213_134_N.png,0,0,0,0,2,8,198,29,,,,,,,,,,,,2023-04-07_19h46.16.377,FaceAttractiveness,2022.2.5,145.23400099087033,
treatment,0% Never,100% Always,images\ LCHEEK_CFD_WF_250_167_N.png,0,0,0,0,2,9,199,36,,,,,,,,,,,,2023-04-07_19h46.16.377,FaceAttractiveness,2022.2.5,145.23400099087033,
treatment,0% Never,100% Always,"images\ LCHEEK_CFD_WF_002_004_N.png
",0,0,0,0,2,10,200,34,,,,,,,,,,,,2023-04-07_19h46.16.377,FaceAttractiveness,2022.2.5,145.23400099087033,
treatment,0% Never,100% Always,"images\ RCHEEK_CFD_BM_234_172_N.png
",0,0,0,0,2,11,201,87,,,,,,,,,,,,2023-04-07_19h46.16.377,FaceAttractiveness,2022.2.5,145.23400099087033,
treatment,0% Never,100% Always,images\ LCHEEK_CFD_LF_224_176_N.png,0,0,0,0,2,12,202,31,,,,,,,,,,,,2023-04-07_19h46.16.377,FaceAttractiveness,2022.2.5,145.23400099087033,
treatment,0% Never,100% Always,"images\ LIP_CFD_WF_002_004_N.png
",0,0,0,0,2,13,203,53,,,,,,,,,,,,2023-04-07_19h46.16.377,FaceAttractiveness,2022.2.5,145.23400099087033,
treatment,0% Never,100% Always,images\ RCHEEK_CFD_AF_245_143_N.png,0,0,0,0,2,14,204,82,,,,,,,,,,,,2023-04-07_19h46.16.377,FaceAttractiveness,2022.2.5,145.23400099087033,
treatment,0% Never,100% Always,images\ NASALTIP_CFD_LF_224_176_N.png,0,0,0,0,2,15,205,69,,,,,,,,,,,,2023-04-07_19h46.16.377,FaceAttractiveness,2022.2.5,145.23400099087033,
treatment,0% Never,100% Always,images\ NASALTIP_CFD_AF_237_223_N.png,0,0,0,0,2,16,206,62,,,,,,,,,,,,2023-04-07_19h46.16.377,FaceAttractiveness,2022.2.5,145.23400099087033,
treatment,0% Never,100% Always,images\ NASALTIP_006_M_F_N_A.png,0,0,0,0,2,17,207,57,,,,,,,,,,,,2023-04-07_19h46.16.377,FaceAttractiveness,2022.2.5,145.23400099087033,
treatment,0% Never,100% Always,images\FOREHEAD_CFD_LF_224_176_N.png,0,0,0,0,2,18,208,12,,,,,,,,,,,,2023-04-07_19h46.16.377,FaceAttractiveness,2022.2.5,145.23400099087033,
treatment,0% Never,100% Always,images\ RCHEEK_CFD_BM_213_134_N.png,0,0,0,0,2,19,209,86,,,,,,,,,,,,2023-04-07_19h46.16.377,FaceAttractiveness,2022.2.5,145.23400099087033,
treatment,0% Never,100% Always,"images\ LCHEEK_CFD_BM_234_172_N.png
",0,0,0,0,2,20,210,30,,,,,,,,,,,,2023-04-07_19h46.16.377,FaceAttractiveness,2022.2.5,145.23400099087033,
treatment,0% Never,100% Always,"images\ LIP_CFD_AM_233_236_N.png
",0,0,0,0,2,21,211,45,,,,,,,,,,,,2023-04-07_19h46.16.377,FaceAttractiveness,2022.2.5,145.23400099087033,
treatment,0% Never,100% Always,images\ RCHEEK_CFD_AF_231_357_N.png,0,0,0,0,2,22,212,80,,,,,,,,,,,,2023-04-07_19h46.16.377,FaceAttractiveness,2022.2.5,145.23400099087033,
treatment,0% Never,100% Always,"images\ LIP_CFD_BM_234_172_N.png
",0,0,0,0,2,23,213,49,,,,,,,,,,,,2023-04-07_19h46.16.377,FaceAttractiveness,2022.2.5,145.23400099087033,
treatment,0% Never,100% Always,images\ RCHEEK_CFD_BF_214_308_N.png,0,0,0,0,2,24,214,84,,,,,,,,,,,,2023-04-07_19h46.16.377,FaceAttractiveness,2022.2.5,145.23400099087033,
treatment,0% Never,100% Always,images\ LIP_CFD_AF_245_143_N.png,0,0,0,0,2,25,215,44,,,,,,,,,,,,2023-04-07_19h46.16.377,FaceAttractiveness,2022.2.5,145.23400099087033,
treatment,0% Never,100% Always,images\ NASALTIP_CFD_AF_231_357_N.png,0,0,0,0,2,26,216,61,,,,,,,,,,,,2023-04-07_19h46.16.377,FaceAttractiveness,2022.2.5,145.23400099087033,
treatment,0% Never,100% Always,images\ RCHEEK_CFD_LM_201_057_N.png,0,0,0,0,2,27,217,89,,,,,,,,,,,,2023-04-07_19h46.16.377,FaceAttractiveness,2022.2.5,145.23400099087033,
treatment,0% Never,100% Always,images\ LIP_CFD_BF_224_002_N.png,0,0,0,0,2,28,218,47,,,,,,,,,,,,2023-04-07_19h46.16.377,FaceAttractiveness,2022.2.5,145.23400099087033,
treatment,0% Never,100% Always,images\ NASALTIP_CFD_LM_203_026_N.png,0,0,0,0,2,29,219,71,,,,,,,,,,,,2023-04-07_19h46.16.377,FaceAttractiveness,2022.2.5,145.23400099087033,
treatment,0% Never,100% Always,"images\ LCHEEK_CFD_AM_233_236_N.png
",0,0,0,0,2,30,220,26,,,,,,,,,,,,2023-04-07_19h46.16.377,FaceAttractiveness,2022.2.5,145.23400099087033,
treatment,0% Never,100% Always,"images\ RCHEEK_CFD_WF_002_004_N.png
",0,0,0,0,2,31,221,91,,,,,,,,,,,,2023-04-07_19h46.16.377,FaceAttractiveness,2022.2.5,145.23400099087033,
treatment,0% Never,100% Always,images\ RCHEEK_CFD_WF_200_099_N.png,0,0,0,0,2,32,222,92,,,,,,,,,,,,2023-04-07_19h46.16.377,FaceAttractiveness,2022.2.5,145.23400099087033,
treatment,0% Never,100% Always,images\ LCHEEK_CFD_LM_201_057_N.png,0,0,0,0,2,33,223,32,,,,,,,,,,,,2023-04-07_19h46.16.377,FaceAttractiveness,2022.2.5,145.23400099087033,
treatment,0% Never,100% Always,images\ LCHEEK_CFD_AF_245_143_N.png,0,0,0,0,2,34,224,25,,,,,,,,,,,,2023-04-07_19h46.16.377,FaceAttractiveness,2022.2.5,145.23400099087033,
treatment,0% Never,100% Always,images\ LIP_087_M_M_N_A.png,0,0,0,0,2,35,225,40,,,,,,,,,,,,2023-04-07_19h46.16.377,FaceAttractiveness,2022.2.5,145.23400099087033,
treatment,0% Never,100% Always,images\FOREHEAD_CFD_AF_245_143_N.png,0,0,0,0,2,36,226,6,,,,,,,,,,,,2023-04-07_19h46.16.377,FaceAttractiveness,2022.2.5,145.23400099087033,
treatment,0% Never,100% Always,images\ LCHEEK_CFD_AF_231_357_N.png,0,0,0,0,2,37,227,23,,,,,,,,,,,,2023-04-07_19h46.16.377,FaceAttractiveness,2022.2.5,145.23400099087033,
treatment,0% Never,100% Always,images\FOREHEAD_035_M_F_N_A.png,0,0,0,0,2,38,228,1,,,,,,,,,,,,2023-04-07_19h46.16.377,FaceAttractiveness,2022.2.5,145.23400099087033,
treatment,0% Never,100% Always,images\FOREHEAD_CFD_AF_237_223_N.png,0,0,0,0,2,39,229,5,,,,,,,,,,,,2023-04-07_19h46.16.377,FaceAttractiveness,2022.2.5,145.23400099087033,
treatment,0% Never,100% Always,images\ RCHEEK_087_M_M_N_A.png,0,0,0,0,2,40,230,78,,,,,,,,,,,,2023-04-07_19h46.16.377,FaceAttractiveness,2022.2.5,145.23400099087033,
treatment,0% Never,100% Always,images\FOREHEAD_CFD_WF_250_167_N.png,0,0,0,0,2,41,231,17,,,,,,,,,,,,2023-04-07_19h46.16.377,FaceAttractiveness,2022.2.5,145.23400099087033,
treatment,0% Never,100% Always,images\ RCHEEK_CFD_AF_237_223_N.png,0,0,0,0,2,42,232,81,,,,,,,,,,,,2023-04-07_19h46.16.377,FaceAttractiveness,2022.2.5,145.23400099087033,
treatment,0% Never,100% Always,images\ LCHEEK_006_M_F_N_A.png,0,0,0,0,2,43,233,19,,,,,,,,,,,,2023-04-07_19h46.16.377,FaceAttractiveness,2022.2.5,145.23400099087033,
treatment,0% Never,100% Always,images\FOREHEAD_CFD_AM_233_236_N.png,0,0,0,0,2,44,234,7,,,,,,,,,,,,2023-04-07_19h46.16.377,FaceAttractiveness,2022.2.5,145.23400099087033,
treatment,0% Never,100% Always,images\ NASALTIP_CFD_BM_213_134_N.png,0,0,0,0,2,45,235,67,,,,,,,,,,,,2023-04-07_19h46.16.377,FaceAttractiveness,2022.2.5,145.23400099087033,
treatment,0% Never,100% Always,images\ RCHEEK_CFD_LF_224_176_N.png,0,0,0,0,2,46,236,88,,,,,,,,,,,,2023-04-07_19h46.16.377,FaceAttractiveness,2022.2.5,145.23400099087033,
treatment,0% Never,100% Always,"images\ NASALTIP_136_M_M_N_A.png
",0,0,0,0,2,47,237,60,,,,,,,,,,,,2023-04-07_19h46.16.377,FaceAttractiveness,2022.2.5,145.23400099087033,
treatment,0% Never,100% Always,images\ LIP_CFD_BM_213_134_N.png,0,0,0,0,2,48,238,48,,,,,,,,,,,,2023-04-07_19h46.16.377,FaceAttractiveness,2022.2.5,145.23400099087033,
treatment,0% Never,100% Always,images\FOREHEAD_CFD_WF_200_099_N.png,0,0,0,0,2,49,239,16,,,,,,,,,,,,2023-04-07_19h46.16.377,FaceAttractiveness,2022.2.5,145.23400099087033,
treatment,0% Never,100% Always,images\ NASALTIP_CFD_BF_214_308_N.png,0,0,0,0,2,50,240,65,,,,,,,,,,,,2023-04-07_19h46.16.377,FaceAttractiveness,2022.2.5,145.23400099087033,
treatment,0% Never,100% Always,images\ RCHEEK_CFD_WM_212_097_N.png,0,0,0,0,2,51,241,94,,,,,,,,,,,,2023-04-07_19h46.16.377,FaceAttractiveness,2022.2.5,145.23400099087033,
treatment,0% Never,100% Always,images\ LIP_CFD_WM_212_097_N.png,0,0,0,0,2,52,242,56,,,,,,,,,,,,2023-04-07_19h46.16.377,FaceAttractiveness,2022.2.5,145.23400099087033,
treatment,0% Never,100% Always,images\FOREHEAD_CFD_WM_212_097_N.png,0,0,0,0,2,53,243,18,,,,,,,,,,,,2023-04-07_19h46.16.377,FaceAttractiveness,2022.2.5,145.23400099087033,
treatment,0% Never,100% Always,images\ NASALTIP_087_M_M_N_A.png,0,0,0,0,2,54,244,59,,,,,,,,,,,,2023-04-07_19h46.16.377,FaceAttractiveness,2022.2.5,145.23400099087033,
treatment,0% Never,100% Always,images\ LIP_035_M_F_N_A.png,0,0,0,0,2,55,245,39,,,,,,,,,,,,2023-04-07_19h46.16.377,FaceAttractiveness,2022.2.5,145.23400099087033,
treatment,0% Never,100% Always,images\ NASALTIP_CFD_WF_200_099_N.png,0,0,0,0,2,56,246,73,,,,,,,,,,,,2023-04-07_19h46.16.377,FaceAttractiveness,2022.2.5,145.23400099087033,
treatment,0% Never,100% Always,images\ LCHEEK_CFD_LM_203_026_N.png,0,0,0,0,2,57,247,33,,,,,,,,,,,,2023-04-07_19h46.16.377,FaceAttractiveness,2022.2.5,145.23400099087033,
treatment,0% Never,100% Always,images\FOREHEAD_CFD_BM_234_172_N.png,0,0,0,0,2,58,248,11,,,,,,,,,,,,2023-04-07_19h46.16.377,FaceAttractiveness,2022.2.5,145.23400099087033,
treatment,0% Never,100% Always,images\ LCHEEK_CFD_WM_212_097_N.png,0,0,0,0,2,59,249,37,,,,,,,,,,,,2023-04-07_19h46.16.377,FaceAttractiveness,2022.2.5,145.23400099087033,
treatment,0% Never,100% Always,images\ NASALTIP_CFD_LM_201_057_N.png,0,0,0,0,2,60,250,70,,,,,,,,,,,,2023-04-07_19h46.16.377,FaceAttractiveness,2022.2.5,145.23400099087033,
treatment,0% Never,100% Always,images\ LIP_CFD_WF_200_099_N.png,0,0,0,0,2,61,251,54,,,,,,,,,,,,2023-04-07_19h46.16.377,FaceAttractiveness,2022.2.5,145.23400099087033,
treatment,0% Never,100% Always,images\ LIP_CFD_BF_214_308_N.png,0,0,0,0,2,62,252,46,,,,,,,,,,,,2023-04-07_19h46.16.377,FaceAttractiveness,2022.2.5,145.23400099087033,
treatment,0% Never,100% Always,images\ LCHEEK_CFD_AF_237_223_N.png,0,0,0,0,2,63,253,24,,,,,,,,,,,,2023-04-07_19h46.16.377,FaceAttractiveness,2022.2.5,145.23400099087033,
treatment,0% Never,100% Always,"images\ NASALTIP_CFD_AM_233_236_N.png
",0,0,0,0,2,64,254,64,,,,,,,,,,,,2023-04-07_19h46.16.377,FaceAttractiveness,2022.2.5,145.23400099087033,
treatment,0% Never,100% Always,images\ RCHEEK_CFD_LM_203_026_N.png,0,0,0,0,2,65,255,90,,,,,,,,,,,,2023-04-07_19h46.16.377,FaceAttractiveness,2022.2.5,145.23400099087033,
treatment,0% Never,100% Always,"images\ RCHEEK_136_M_M_N_A.png
",0,0,0,0,2,66,256,79,,,,,,,,,,,,2023-04-07_19h46.16.377,FaceAttractiveness,2022.2.5,145.23400099087033,
treatment,0% Never,100% Always,images\ LIP_CFD_WF_250_167_N.png,0,0,0,0,2,67,257,55,,,,,,,,,,,,2023-04-07_19h46.16.377,FaceAttractiveness,2022.2.5,145.23400099087033,
treatment,0% Never,100% Always,images\ NASALTIP_CFD_WF_250_167_N.png,0,0,0,0,2,68,258,74,,,,,,,,,,,,2023-04-07_19h46.16.377,FaceAttractiveness,2022.2.5,145.23400099087033,
treatment,0% Never,100% Always,images\FOREHEAD_CFD_LM_203_026_N.png,0,0,0,0,2,69,259,14,,,,,,,,,,,,2023-04-07_19h46.16.377,FaceAttractiveness,2022.2.5,145.23400099087033,
treatment,0% Never,100% Always,images\ RCHEEK_CFD_WF_250_167_N.png,0,0,0,0,2,70,260,93,,,,,,,,,,,,2023-04-07_19h46.16.377,FaceAttractiveness,2022.2.5,145.23400099087033,
treatment,0% Never,100% Always,images\FOREHEAD_CFD_WF_002_004_N.png,0,0,0,0,2,71,261,15,,,,,,,,,,,,2023-04-07_19h46.16.377,FaceAttractiveness,2022.2.5,145.23400099087033,
treatment,0% Never,100% Always,images\ LIP_CFD_LM_201_057_N.png,0,0,0,0,2,72,262,51,,,,,,,,,,,,2023-04-07_19h46.16.377,FaceAttractiveness,2022.2.5,145.23400099087033,
treatment,0% Never,100% Always,images\ LIP_CFD_AF_231_357_N.png,0,0,0,0,2,73,263,42,,,,,,,,,,,,2023-04-07_19h46.16.377,FaceAttractiveness,2022.2.5,145.23400099087033,
treatment,0% Never,100% Always,images\ NASALTIP_035_M_F_N_A.png,0,0,0,0,2,74,264,58,,,,,,,,,,,,2023-04-07_19h46.16.377,FaceAttractiveness,2022.2.5,145.23400099087033,
treatment,0% Never,100% Always,images\ LIP_CFD_AF_237_223_N.png,0,0,0,0,2,75,265,43,,,,,,,,,,,,2023-04-07_19h46.16.377,FaceAttractiveness,2022.2.5,145.23400099087033,
treatment,0% Never,100% Always,images\FOREHEAD_CFD_BF_214_308_N.png,0,0,0,0,2,76,266,8,,,,,,,,,,,,2023-04-07_19h46.16.377,FaceAttractiveness,2022.2.5,145.23400099087033,
treatment,0% Never,100% Always,images\ NASALTIP_CFD_WM_212_097_N.png,0,0,0,0,2,77,267,75,,,,,,,,,,,,2023-04-07_19h46.16.377,FaceAttractiveness,2022.2.5,145.23400099087033,
treatment,0% Never,100% Always,images\ RCHEEK_006_M_F_N_A.png,0,0,0,0,2,78,268,76,,,,,,,,,,,,2023-04-07_19h46.16.377,FaceAttractiveness,2022.2.5,145.23400099087033,
treatment,0% Never,100% Always,images\ LCHEEK_CFD_BF_214_308_N.png,0,0,0,0,2,79,269,27,,,,,,,,,,,,2023-04-07_19h46.16.377,FaceAttractiveness,2022.2.5,145.23400099087033,
treatment,0% Never,100% Always,images\FOREHEAD_CFD_LM_201_057_N.png,0,0,0,0,2,80,270,13,,,,,,,,,,,,2023-04-07_19h46.16.377,FaceAttractiveness,2022.2.5,145.23400099087033,
treatment,0% Never,100% Always,images\ RCHEEK_CFD_BF_224_002_N.png,0,0,0,0,2,81,271,85,,,,,,,,,,,,2023-04-07_19h46.16.377,FaceAttractiveness,2022.2.5,145.23400099087033,
treatment,0% Never,100% Always,images\ LCHEEK_087_M_M_N_A.png,0,0,0,0,2,82,272,21,,,,,,,,,,,,2023-04-07_19h46.16.377,FaceAttractiveness,2022.2.5,145.23400099087033,
treatment,0% Never,100% Always,"images\ RCHEEK_CFD_AM_233_236_N.png
",0,0,0,0,2,83,273,83,,,,,,,,,,,,2023-04-07_19h46.16.377,FaceAttractiveness,2022.2.5,145.23400099087033,
treatment,0% Never,100% Always,images\FOREHEAD_087_M_M_N_A.png,0,0,0,0,2,84,274,2,,,,,,,,,,,,2023-04-07_19h46.16.377,FaceAttractiveness,2022.2.5,145.23400099087033,
treatment,0% Never,100% Always,images\FOREHEAD_CFD_AF_231_357_N.png,0,0,0,0,2,85,275,4,,,,,,,,,,,,2023-04-07_19h46.16.377,FaceAttractiveness,2022.2.5,145.23400099087033,
treatment,0% Never,100% Always,"images\ LCHEEK_136_M_M_N_A.png
",0,0,0,0,2,86,276,22,,,,,,,,,,,,2023-04-07_19h46.16.377,FaceAttractiveness,2022.2.5,145.23400099087033,
treatment,0% Never,100% Always,images\ LCHEEK_035_M_F_N_A.png,0,0,0,0,2,87,277,20,,,,,,,,,,,,2023-04-07_19h46.16.377,FaceAttractiveness,2022.2.5,145.23400099087033,
treatment,0% Never,100% Always,images\FOREHEAD_006_M_F_N_A.png,0,0,0,0,2,88,278,0,,,,,,,,,,,,2023-04-07_19h46.16.377,FaceAttractiveness,2022.2.5,145.23400099087033,
treatment,0% Never,100% Always,images\ RCHEEK_035_M_F_N_A.png,0,0,0,0,2,89,279,77,,,,,,,,,,,,2023-04-07_19h46.16.377,FaceAttractiveness,2022.2.5,145.23400099087033,
treatment,0% Never,100% Always,images\ LIP_CFD_LM_203_026_N.png,0,0,0,0,2,90,280,52,,,,,,,,,,,,2023-04-07_19h46.16.377,FaceAttractiveness,2022.2.5,145.23400099087033,
treatment,0% Never,100% Always,images\ NASALTIP_CFD_AF_245_143_N.png,0,0,0,0,2,91,281,63,,,,,,,,,,,,2023-04-07_19h46.16.377,FaceAttractiveness,2022.2.5,145.23400099087033,
treatment,0% Never,100% Always,images\FOREHEAD_136_M_M_N_A.png,0,0,0,0,2,92,282,3,,,,,,,,,,,,2023-04-07_19h46.16.377,FaceAttractiveness,2022.2.5,145.23400099087033,
treatment,0% Never,100% Always,images\ LCHEEK_CFD_WF_200_099_N.png,0,0,0,0,2,93,283,35,,,,,,,,,,,,2023-04-07_19h46.16.377,FaceAttractiveness,2022.2.5,145.23400099087033,
treatment,0% Never,100% Always,"images\ LIP_136_M_M_N_A.png
",0,0,0,0,2,94,284,41,,,,,,,,,,,,2023-04-07_19h46.16.377,FaceAttractiveness,2022.2.5,145.23400099087033,
treatment,0% Never,100% Always,images\ NASALTIP_CFD_WF_200_099_N.png,0,0,0,0,3,0,285,73,,,,,,,,,,,,2023-04-07_19h46.16.377,FaceAttractiveness,2022.2.5,145.23400099087033,
treatment,0% Never,100% Always,images\ RCHEEK_CFD_AF_231_357_N.png,0,0,0,0,3,1,286,80,,,,,,,,,,,,2023-04-07_19h46.16.377,FaceAttractiveness,2022.2.5,145.23400099087033,
treatment,0% Never,100% Always,images\ NASALTIP_CFD_LM_203_026_N.png,0,0,0,0,3,2,287,71,,,,,,,,,,,,2023-04-07_19h46.16.377,FaceAttractiveness,2022.2.5,145.23400099087033,
treatment,0% Never,100% Always,images\ RCHEEK_035_M_F_N_A.png,0,0,0,0,3,3,288,77,,,,,,,,,,,,2023-04-07_19h46.16.377,FaceAttractiveness,2022.2.5,145.23400099087033,
treatment,0% Never,100% Always,images\ LCHEEK_CFD_WF_200_099_N.png,0,0,0,0,3,4,289,35,,,,,,,,,,,,2023-04-07_19h46.16.377,FaceAttractiveness,2022.2.5,145.23400099087033,
treatment,0% Never,100% Always,images\ RCHEEK_006_M_F_N_A.png,0,0,0,0,3,5,290,76,,,,,,,,,,,,2023-04-07_19h46.16.377,FaceAttractiveness,2022.2.5,145.23400099087033,
treatment,0% Never,100% Always,images\ RCHEEK_CFD_WM_212_097_N.png,0,0,0,0,3,6,291,94,,,,,,,,,,,,2023-04-07_19h46.16.377,FaceAttractiveness,2022.2.5,145.23400099087033,
treatment,0% Never,100% Always,images\ LCHEEK_CFD_AF_245_143_N.png,0,0,0,0,3,7,292,25,,,,,,,,,,,,2023-04-07_19h46.16.377,FaceAttractiveness,2022.2.5,145.23400099087033,
treatment,0% Never,100% Always,images\ LIP_035_M_F_N_A.png,0,0,0,0,3,8,293,39,,,,,,,,,,,,2023-04-07_19h46.16.377,FaceAttractiveness,2022.2.5,145.23400099087033,
treatment,0% Never,100% Always,images\ NASALTIP_CFD_LM_201_057_N.png,0,0,0,0,3,9,294,70,,,,,,,,,,,,2023-04-07_19h46.16.377,FaceAttractiveness,2022.2.5,145.23400099087033,
treatment,0% Never,100% Always,images\ LCHEEK_CFD_BM_213_134_N.png,0,0,0,0,3,10,295,29,,,,,,,,,,,,2023-04-07_19h46.16.377,FaceAttractiveness,2022.2.5,145.23400099087033,
treatment,0% Never,100% Always,images\ LCHEEK_006_M_F_N_A.png,0,0,0,0,3,11,296,19,,,,,,,,,,,,2023-04-07_19h46.16.377,FaceAttractiveness,2022.2.5,145.23400099087033,
treatment,0% Never,100% Always,images\ LIP_087_M_M_N_A.png,0,0,0,0,3,12,297,40,,,,,,,,,,,,2023-04-07_19h46.16.377,FaceAttractiveness,2022.2.5,145.23400099087033,
treatment,0% Never,100% Always,images\ LCHEEK_CFD_WM_212_097_N.png,0,0,0,0,3,13,298,37,,,,,,,,,,,,2023-04-07_19h46.16.377,FaceAttractiveness,2022.2.5,145.23400099087033,
treatment,0% Never,100% Always,images\ RCHEEK_CFD_WF_250_167_N.png,0,0,0,0,3,14,299,93,,,,,,,,,,,,2023-04-07_19h46.16.377,FaceAttractiveness,2022.2.5,145.23400099087033,
treatment,0% Never,100% Always,images\ NASALTIP_CFD_AF_237_223_N.png,0,0,0,0,3,15,300,62,,,,,,,,,,,,2023-04-07_19h46.16.377,FaceAttractiveness,2022.2.5,145.23400099087033,
treatment,0% Never,100% Always,images\FOREHEAD_CFD_AM_233_236_N.png,0,0,0,0,3,16,301,7,,,,,,,,,,,,2023-04-07_19h46.16.377,FaceAttractiveness,2022.2.5,145.23400099087033,
treatment,0% Never,100% Always,"images\ LCHEEK_136_M_M_N_A.png
",0,0,0,0,3,17,302,22,,,,,,,,,,,,2023-04-07_19h46.16.377,FaceAttractiveness,2022.2.5,145.23400099087033,
treatment,0% Never,100% Always,images\FOREHEAD_CFD_LM_203_026_N.png,0,0,0,0,3,18,303,14,,,,,,,,,,,,2023-04-07_19h46.16.377,FaceAttractiveness,2022.2.5,145.23400099087033,
treatment,0% Never,100% Always,images\ NASALTIP_CFD_LF_224_176_N.png,0,0,0,0,3,19,304,69,,,,,,,,,,,,2023-04-07_19h46.16.377,FaceAttractiveness,2022.2.5,145.23400099087033,
treatment,0% Never,100% Always,images\ LIP_006_M_F_N_A.png,0,0,0,0,3,20,305,38,,,,,,,,,,,,2023-04-07_19h46.16.377,FaceAttractiveness,2022.2.5,145.23400099087033,
treatment,0% Never,100% Always,"images\ NASALTIP_136_M_M_N_A.png
",0,0,0,0,3,21,306,60,,,,,,,,,,,,2023-04-07_19h46.16.377,FaceAttractiveness,2022.2.5,145.23400099087033,
treatment,0% Never,100% Always,images\ NASALTIP_087_M_M_N_A.png,0,0,0,0,3,22,307,59,,,,,,,,,,,,2023-04-07_19h46.16.377,FaceAttractiveness,2022.2.5,145.23400099087033,
treatment,0% Never,100% Always,images\FOREHEAD_087_M_M_N_A.png,0,0,0,0,3,23,308,2,,,,,,,,,,,,2023-04-07_19h46.16.377,FaceAttractiveness,2022.2.5,145.23400099087033,
treatment,0% Never,100% Always,images\ LIP_CFD_BF_214_308_N.png,0,0,0,0,3,24,309,46,,,,,,,,,,,,2023-04-07_19h46.16.377,FaceAttractiveness,2022.2.5,145.23400099087033,
treatment,0% Never,100% Always,images\FOREHEAD_CFD_AF_231_357_N.png,0,0,0,0,3,25,310,4,,,,,,,,,,,,2023-04-07_19h46.16.377,FaceAttractiveness,2022.2.5,145.23400099087033,
treatment,0% Never,100% Always,images\ LIP_CFD_BM_213_134_N.png,0,0,0,0,3,26,311,48,,,,,,,,,,,,2023-04-07_19h46.16.377,FaceAttractiveness,2022.2.5,145.23400099087033,
treatment,0% Never,100% Always,images\FOREHEAD_CFD_WM_212_097_N.png,0,0,0,0,3,27,312,18,,,,,,,,,,,,2023-04-07_19h46.16.377,FaceAttractiveness,2022.2.5,145.23400099087033,
treatment,0% Never,100% Always,"images\ LIP_CFD_BM_234_172_N.png
",0,0,0,0,3,28,313,49,,,,,,,,,,,,2023-04-07_19h46.16.377,FaceAttractiveness,2022.2.5,145.23400099087033,
treatment,0% Never,100% Always,images\ LCHEEK_087_M_M_N_A.png,0,0,0,0,3,29,314,21,,,,,,,,,,,,2023-04-07_19h46.16.377,FaceAttractiveness,2022.2.5,145.23400099087033,
treatment,0% Never,100% Always,images\FOREHEAD_CFD_LM_201_057_N.png,0,0,0,0,3,30,315,13,,,,,,,,,,,,2023-04-07_19h46.16.377,FaceAttractiveness,2022.2.5,145.23400099087033,
treatment,0% Never,100% Always,images\ RCHEEK_CFD_BF_214_308_N.png,0,0,0,0,3,31,316,84,,,,,,,,,,,,2023-04-07_19h46.16.377,FaceAttractiveness,2022.2.5,145.23400099087033,
treatment,0% Never,100% Always,images\ NASALTIP_CFD_AF_231_357_N.png,0,0,0,0,3,32,317,61,,,,,,,,,,,,2023-04-07_19h46.16.377,FaceAttractiveness,2022.2.5,145.23400099087033,
treatment,0% Never,100% Always,images\ LIP_CFD_WF_250_167_N.png,0,0,0,0,3,33,318,55,,,,,,,,,,,,2023-04-07_19h46.16.377,FaceAttractiveness,2022.2.5,145.23400099087033,
treatment,0% Never,100% Always,images\ LIP_CFD_WF_200_099_N.png,0,0,0,0,3,34,319,54,,,,,,,,,,,,2023-04-07_19h46.16.377,FaceAttractiveness,2022.2.5,145.23400099087033,
treatment,0% Never,100% Always,images\FOREHEAD_CFD_AF_237_223_N.png,0,0,0,0,3,35,320,5,,,,,,,,,,,,2023-04-07_19h46.16.377,FaceAttractiveness,2022.2.5,145.23400099087033,
treatment,0% Never,100% Always,images\ NASALTIP_CFD_AF_245_143_N.png,0,0,0,0,3,36,321,63,,,,,,,,,,,,2023-04-07_19h46.16.377,FaceAttractiveness,2022.2.5,145.23400099087033,
treatment,0% Never,100% Always,"images\ RCHEEK_CFD_AM_233_236_N.png
",0,0,0,0,3,37,322,83,,,,,,,,,,,,2023-04-07_19h46.16.377,FaceAttractiveness,2022.2.5,145.23400099087033,
treatment,0% Never,100% Always,"images\ LCHEEK_CFD_AM_233_236_N.png
",0,0,0,0,3,38,323,26,,,,,,,,,,,,2023-04-07_19h46.16.377,FaceAttractiveness,2022.2.5,145.23400099087033,
treatment,0% Never,100% Always,images\ NASALTIP_035_M_F_N_A.png,0,0,0,0,3,39,324,58,,,,,,,,,,,,2023-04-07_19h46.16.377,FaceAttractiveness,2022.2.5,145.23400099087033,
treatment,0% Never,100% Always,images\ LIP_CFD_WM_212_097_N.png,0,0,0,0,3,40,325,56,,,,,,,,,,,,2023-04-07_19h46.16.377,FaceAttractiveness,2022.2.5,145.23400099087033,
treatment,0% Never,100% Always,images\ NASALTIP_CFD_WM_212_097_N.png,0,0,0,0,3,41,326,75,,,,,,,,,,,,2023-04-07_19h46.16.377,FaceAttractiveness,2022.2.5,145.23400099087033,
treatment,0% Never,100% Always,images\FOREHEAD_CFD_WF_002_004_N.png,0,0,0,0,3,42,327,15,,,,,,,,,,,,2023-04-07_19h46.16.377,FaceAttractiveness,2022.2.5,145.23400099087033,
treatment,0% Never,100% Always,images\FOREHEAD_035_M_F_N_A.png,0,0,0,0,3,43,328,1,,,,,,,,,,,,2023-04-07_19h46.16.377,FaceAttractiveness,2022.2.5,145.23400099087033,
treatment,0% Never,100% Always,images\ LIP_CFD_AF_231_357_N.png,0,0,0,0,3,44,329,42,,,,,,,,,,,,2023-04-07_19h46.16.377,FaceAttractiveness,2022.2.5,145.23400099087033,
treatment,0% Never,100% Always,images\ LCHEEK_CFD_BF_224_002_N.png,0,0,0,0,3,45,330,28,,,,,,,,,,,,2023-04-07_19h46.16.377,FaceAttractiveness,2022.2.5,145.23400099087033,
treatment,0% Never,100% Always,images\ RCHEEK_CFD_WF_200_099_N.png,0,0,0,0,3,46,331,92,,,,,,,,,,,,2023-04-07_19h46.16.377,FaceAttractiveness,2022.2.5,145.23400099087033,
treatment,0% Never,100% Always,images\ NASALTIP_CFD_BF_214_308_N.png,0,0,0,0,3,47,332,65,,,,,,,,,,,,2023-04-07_19h46.16.377,FaceAttractiveness,2022.2.5,145.23400099087033,
treatment,0% Never,100% Always,images\ RCHEEK_CFD_AF_245_143_N.png,0,0,0,0,3,48,333,82,,,,,,,,,,,,2023-04-07_19h46.16.377,FaceAttractiveness,2022.2.5,145.23400099087033,
treatment,0% Never,100% Always,images\ NASALTIP_006_M_F_N_A.png,0,0,0,0,3,49,334,57,,,,,,,,,,,,2023-04-07_19h46.16.377,FaceAttractiveness,2022.2.5,145.23400099087033,
treatment,0% Never,100% Always,"images\ NASALTIP_CFD_WF_002_004_N.png
",0,0,0,0,3,50,335,72,,,,,,,,,,,,2023-04-07_19h46.16.377,FaceAttractiveness,2022.2.5,145.23400099087033,
treatment,0% Never,100% Always,images\ LCHEEK_CFD_WF_250_167_N.png,0,0,0,0,3,51,336,36,,,,,,,,,,,,2023-04-07_19h46.16.377,FaceAttractiveness,2022.2.5,145.23400099087033,
treatment,0% Never,100% Always,images\ LCHEEK_CFD_LM_203_026_N.png,0,0,0,0,3,52,337,33,,,,,,,,,,,,2023-04-07_19h46.16.377,FaceAttractiveness,2022.2.5,145.23400099087033,
treatment,0% Never,100% Always,images\ NASALTIP_CFD_BF_224_002_N.png,0,0,0,0,3,53,338,66,,,,,,,,,,,,2023-04-07_19h46.16.377,FaceAttractiveness,2022.2.5,145.23400099087033,
treatment,0% Never,100% Always,images\ LIP_CFD_AF_237_223_N.png,0,0,0,0,3,54,339,43,,,,,,,,,,,,2023-04-07_19h46.16.377,FaceAttractiveness,2022.2.5,145.23400099087033,
treatment,0% Never,100% Always,images\ NASALTIP_CFD_BM_213_134_N.png,0,0,0,0,3,55,340,67,,,,,,,,,,,,2023-04-07_19h46.16.377,FaceAttractiveness,2022.2.5,145.23400099087033,
treatment,0% Never,100% Always,images\ LIP_CFD_LM_203_026_N.png,0,0,0,0,3,56,341,52,,,,,,,,,,,,2023-04-07_19h46.16.377,FaceAttractiveness,2022.2.5,145.23400099087033,
treatment,0% Never,100% Always,"images\ LIP_CFD_WF_002_004_N.png
",0,0,0,0,3,57,342,53,,,,,,,,,,,,2023-04-07_19h46.16.377,FaceAttractiveness,2022.2.5,145.23400099087033,
treatment,0% Never,100% Always,images\FOREHEAD_CFD_AF_245_143_N.png,0,0,0,0,3,58,343,6,,,,,,,,,,,,2023-04-07_19h46.16.377,FaceAttractiveness,2022.2.5,145.23400099087033,
treatment,0% Never,100% Always,images\ LCHEEK_CFD_AF_237_223_N.png,0,0,0,0,3,59,344,24,,,,,,,,,,,,2023-04-07_19h46.16.377,FaceAttractiveness,2022.2.5,145.23400099087033,
treatment,0% Never,100% Always,images\ RCHEEK_087_M_M_N_A.png,0,0,0,0,3,60,345,78,,,,,,,,,,,,2023-04-07_19h46.16.377,FaceAttractiveness,2022.2.5,145.23400099087033,
treatment,0% Never,100% Always,"images\ NASALTIP_CFD_BM_234_172_N.png
",0,0,0,0,3,61,346,68,,,,,,,,,,,,2023-04-07_19h46.16.377,FaceAttractiveness,2022.2.5,145.23400099087033,
treatment,0% Never,100% Always,images\FOREHEAD_136_M_M_N_A.png,0,0,0,0,3,62,347,3,,,,,,,,,,,,2023-04-07_19h46.16.377,FaceAttractiveness,2022.2.5,145.23400099087033,
treatment,0% Never,100% Always,images\FOREHEAD_CFD_WF_200_099_N.png,0,0,0,0,3,63,348,16,,,,,,,,,,,,2023-04-07_19h46.16.377,FaceAttractiveness,2022.2.5,145.23400099087033,
treatment,0% Never,100% Always,images\FOREHEAD_CFD_BM_213_134_N.png,0,0,0,0,3,64,349,10,,,,,,,,,,,,2023-04-07_19h46.16.377,FaceAttractiveness,2022.2.5,145.23400099087033,
treatment,0% Never,100% Always,images\ RCHEEK_CFD_LF_224_176_N.png,0,0,0,0,3,65,350,88,,,,,,,,,,,,2023-04-07_19h46.16.377,FaceAttractiveness,2022.2.5,145.23400099087033,
treatment,0% Never,100% Always,images\ LCHEEK_CFD_AF_231_357_N.png,0,0,0,0,3,66,351,23,,,,,,,,,,,,2023-04-07_19h46.16.377,FaceAttractiveness,2022.2.5,145.23400099087033,
treatment,0% Never,100% Always,images\FOREHEAD_006_M_F_N_A.png,0,0,0,0,3,67,352,0,,,,,,,,,,,,2023-04-07_19h46.16.377,FaceAttractiveness,2022.2.5,145.23400099087033,
treatment,0% Never,100% Always,images\ LCHEEK_CFD_LM_201_057_N.png,0,0,0,0,3,68,353,32,,,,,,,,,,,,2023-04-07_19h46.16.377,FaceAttractiveness,2022.2.5,145.23400099087033,
treatment,0% Never,100% Always,images\ LCHEEK_CFD_LF_224_176_N.png,0,0,0,0,3,69,354,31,,,,,,,,,,,,2023-04-07_19h46.16.377,FaceAttractiveness,2022.2.5,145.23400099087033,
treatment,0% Never,100% Always,images\FOREHEAD_CFD_LF_224_176_N.png,0,0,0,0,3,70,355,12,,,,,,,,,,,,2023-04-07_19h46.16.377,FaceAttractiveness,2022.2.5,145.23400099087033,
treatment,0% Never,100% Always,images\ RCHEEK_CFD_AF_237_223_N.png,0,0,0,0,3,71,356,81,,,,,,,,,,,,2023-04-07_19h46.16.377,FaceAttractiveness,2022.2.5,145.23400099087033,
treatment,0% Never,100% Always,"images\ RCHEEK_CFD_BM_234_172_N.png
",0,0,0,0,3,72,357,87,,,,,,,,,,,,2023-04-07_19h46.16.377,FaceAttractiveness,2022.2.5,145.23400099087033,
treatment,0% Never,100% Always,images\ LIP_CFD_LM_201_057_N.png,0,0,0,0,3,73,358,51,,,,,,,,,,,,2023-04-07_19h46.16.377,FaceAttractiveness,2022.2.5,145.23400099087033,
treatment,0% Never,100% Always,"images\ LCHEEK_CFD_WF_002_004_N.png
",0,0,0,0,3,74,359,34,,,,,,,,,,,,2023-04-07_19h46.16.377,FaceAttractiveness,2022.2.5,145.23400099087033,
treatment,0% Never,100% Always,"images\ LIP_CFD_AM_233_236_N.png
",0,0,0,0,3,75,360,45,,,,,,,,,,,,2023-04-07_19h46.16.377,FaceAttractiveness,2022.2.5,145.23400099087033,
treatment,0% Never,100% Always,images\ LIP_CFD_BF_224_002_N.png,0,0,0,0,3,76,361,47,,,,,,,,,,,,2023-04-07_19h46.16.377,FaceAttractiveness,2022.2.5,145.23400099087033,
treatment,0% Never,100% Always,"images\ NASALTIP_CFD_AM_233_236_N.png
",0,0,0,0,3,77,362,64,,,,,,,,,,,,2023-04-07_19h46.16.377,FaceAttractiveness,2022.2.5,145.23400099087033,
treatment,0% Never,100% Always,images\ RCHEEK_CFD_BF_224_002_N.png,0,0,0,0,3,78,363,85,,,,,,,,,,,,2023-04-07_19h46.16.377,FaceAttractiveness,2022.2.5,145.23400099087033,
treatment,0% Never,100% Always,"images\ LCHEEK_CFD_BM_234_172_N.png
",0,0,0,0,3,79,364,30,,,,,,,,,,,,2023-04-07_19h46.16.377,FaceAttractiveness,2022.2.5,145.23400099087033,
treatment,0% Never,100% Always,"images\ RCHEEK_136_M_M_N_A.png
",0,0,0,0,3,80,365,79,,,,,,,,,,,,2023-04-07_19h46.16.377,FaceAttractiveness,2022.2.5,145.23400099087033,
treatment,0% Never,100% Always,images\ LCHEEK_035_M_F_N_A.png,0,0,0,0,3,81,366,20,,,,,,,,,,,,2023-04-07_19h46.16.377,FaceAttractiveness,2022.2.5,145.23400099087033,
treatment,0% Never,100% Always,images\ NASALTIP_CFD_WF_250_167_N.png,0,0,0,0,3,82,367,74,,,,,,,,,,,,2023-04-07_19h46.16.377,FaceAttractiveness,2022.2.5,145.23400099087033,
treatment,0% Never,100% Always,images\FOREHEAD_CFD_BM_234_172_N.png,0,0,0,0,3,83,368,11,,,,,,,,,,,,2023-04-07_19h46.16.377,FaceAttractiveness,2022.2.5,145.23400099087033,
treatment,0% Never,100% Always,images\ RCHEEK_CFD_LM_203_026_N.png,0,0,0,0,3,84,369,90,,,,,,,,,,,,2023-04-07_19h46.16.377,FaceAttractiveness,2022.2.5,145.23400099087033,
treatment,0% Never,100% Always,"images\ LIP_136_M_M_N_A.png
",0,0,0,0,3,85,370,41,,,,,,,,,,,,2023-04-07_19h46.16.377,FaceAttractiveness,2022.2.5,145.23400099087033,
treatment,0% Never,100% Always,images\FOREHEAD_CFD_BF_224_002_N.png,0,0,0,0,3,86,371,9,,,,,,,,,,,,2023-04-07_19h46.16.377,FaceAttractiveness,2022.2.5,145.23400099087033,
treatment,0% Never,100% Always,images\ LCHEEK_CFD_BF_214_308_N.png,0,0,0,0,3,87,372,27,,,,,,,,,,,,2023-04-07_19h46.16.377,FaceAttractiveness,2022.2.5,145.23400099087033,
treatment,0% Never,100% Always,images\FOREHEAD_CFD_WF_250_167_N.png,0,0,0,0,3,88,373,17,,,,,,,,,,,,2023-04-07_19h46.16.377,FaceAttractiveness,2022.2.5,145.23400099087033,
treatment,0% Never,100% Always,images\ LIP_CFD_LF_224_176_N.png,0,0,0,0,3,89,374,50,,,,,,,,,,,,2023-04-07_19h46.16.377,FaceAttractiveness,2022.2.5,145.23400099087033,
treatment,0% Never,100% Always,images\ RCHEEK_CFD_LM_201_057_N.png,0,0,0,0,3,90,375,89,,,,,,,,,,,,2023-04-07_19h46.16.377,FaceAttractiveness,2022.2.5,145.23400099087033,
treatment,0% Never,100% Always,"images\ RCHEEK_CFD_WF_002_004_N.png
",0,0,0,0,3,91,376,91,,,,,,,,,,,,2023-04-07_19h46.16.377,FaceAttractiveness,2022.2.5,145.23400099087033,
treatment,0% Never,100% Always,images\ LIP_CFD_AF_245_143_N.png,0,0,0,0,3,92,377,44,,,,,,,,,,,,2023-04-07_19h46.16.377,FaceAttractiveness,2022.2.5,145.23400099087033,
treatment,0% Never,100% Always,images\FOREHEAD_CFD_BF_214_308_N.png,0,0,0,0,3,93,378,8,,,,,,,,,,,,2023-04-07_19h46.16.377,FaceAttractiveness,2022.2.5,145.23400099087033,
treatment,0% Never,100% Always,images\ RCHEEK_CFD_BM_213_134_N.png,0,0,0,0,3,94,379,86,,,,,,,,,,,,2023-04-07_19h46.16.377,FaceAttractiveness,2022.2.5,145.23400099087033,
treatment,0% Never,100% Always,images\FOREHEAD_CFD_BF_214_308_N.png,0,0,0,0,4,0,380,8,,,,,,,,,,,,2023-04-07_19h46.16.377,FaceAttractiveness,2022.2.5,145.23400099087033,
treatment,0% Never,100% Always,images\ NASALTIP_CFD_WF_250_167_N.png,0,0,0,0,4,1,381,74,,,,,,,,,,,,2023-04-07_19h46.16.377,FaceAttractiveness,2022.2.5,145.23400099087033,
treatment,0% Never,100% Always,images\ LIP_CFD_BM_213_134_N.png,0,0,0,0,4,2,382,48,,,,,,,,,,,,2023-04-07_19h46.16.377,FaceAttractiveness,2022.2.5,145.23400099087033,
treatment,0% Never,100% Always,images\ NASALTIP_CFD_LM_201_057_N.png,0,0,0,0,4,3,383,70,,,,,,,,,,,,2023-04-07_19h46.16.377,FaceAttractiveness,2022.2.5,145.23400099087033,
treatment,0% Never,100% Always,images\ RCHEEK_CFD_LM_201_057_N.png,0,0,0,0,4,4,384,89,,,,,,,,,,,,2023-04-07_19h46.16.377,FaceAttractiveness,2022.2.5,145.23400099087033,
treatment,0% Never,100% Always,images\ LCHEEK_CFD_AF_245_143_N.png,0,0,0,0,4,5,385,25,,,,,,,,,,,,2023-04-07_19h46.16.377,FaceAttractiveness,2022.2.5,145.23400099087033,
treatment,0% Never,100% Always,images\FOREHEAD_CFD_AM_233_236_N.png,0,0,0,0,4,6,386,7,,,,,,,,,,,,2023-04-07_19h46.16.377,FaceAttractiveness,2022.2.5,145.23400099087033,
treatment,0% Never,100% Always,images\ NASALTIP_CFD_BF_214_308_N.png,0,0,0,0,4,7,387,65,,,,,,,,,,,,2023-04-07_19h46.16.377,FaceAttractiveness,2022.2.5,145.23400099087033,
treatment,0% Never,100% Always,images\FOREHEAD_CFD_WF_002_004_N.png,0,0,0,0,4,8,388,15,,,,,,,,,,,,2023-04-07_19h46.16.377,FaceAttractiveness,2022.2.5,145.23400099087033,
treatment,0% Never,100% Always,images\ LIP_CFD_LF_224_176_N.png,0,0,0,0,4,9,389,50,,,,,,,,,,,,2023-04-07_19h46.16.377,FaceAttractiveness,2022.2.5,145.23400099087033,
treatment,0% Never,100% Always,images\ LCHEEK_CFD_LF_224_176_N.png,0,0,0,0,4,10,390,31,,,,,,,,,,,,2023-04-07_19h46.16.377,FaceAttractiveness,2022.2.5,145.23400099087033,
treatment,0% Never,100% Always,images\ NASALTIP_087_M_M_N_A.png,0,0,0,0,4,11,391,59,,,,,,,,,,,,2023-04-07_19h46.16.377,FaceAttractiveness,2022.2.5,145.23400099087033,
treatment,0% Never,100% Always,images\FOREHEAD_CFD_AF_245_143_N.png,0,0,0,0,4,12,392,6,,,,,,,,,,,,2023-04-07_19h46.16.377,FaceAttractiveness,2022.2.5,145.23400099087033,
treatment,0% Never,100% Always,images\ RCHEEK_CFD_WM_212_097_N.png,0,0,0,0,4,13,393,94,,,,,,,,,,,,2023-04-07_19h46.16.377,FaceAttractiveness,2022.2.5,145.23400099087033,
treatment,0% Never,100% Always,images\ NASALTIP_CFD_BM_213_134_N.png,0,0,0,0,4,14,394,67,,,,,,,,,,,,2023-04-07_19h46.16.377,FaceAttractiveness,2022.2.5,145.23400099087033,
treatment,0% Never,100% Always,images\FOREHEAD_CFD_AF_237_223_N.png,0,0,0,0,4,15,395,5,,,,,,,,,,,,2023-04-07_19h46.16.377,FaceAttractiveness,2022.2.5,145.23400099087033,
treatment,0% Never,100% Always,"images\ NASALTIP_136_M_M_N_A.png
",0,0,0,0,4,16,396,60,,,,,,,,,,,,2023-04-07_19h46.16.377,FaceAttractiveness,2022.2.5,145.23400099087033,
treatment,0% Never,100% Always,images\FOREHEAD_035_M_F_N_A.png,0,0,0,0,4,17,397,1,,,,,,,,,,,,2023-04-07_19h46.16.377,FaceAttractiveness,2022.2.5,145.23400099087033,
treatment,0% Never,100% Always,images\ LIP_CFD_WF_250_167_N.png,0,0,0,0,4,18,398,55,,,,,,,,,,,,2023-04-07_19h46.16.377,FaceAttractiveness,2022.2.5,145.23400099087033,
treatment,0% Never,100% Always,images\ LCHEEK_CFD_BM_213_134_N.png,0,0,0,0,4,19,399,29,,,,,,,,,,,,2023-04-07_19h46.16.377,FaceAttractiveness,2022.2.5,145.23400099087033,
treatment,0% Never,100% Always,images\ NASALTIP_035_M_F_N_A.png,0,0,0,0,4,20,400,58,,,,,,,,,,,,2023-04-07_19h46.16.377,FaceAttractiveness,2022.2.5,145.23400099087033,
treatment,0% Never,100% Always,"images\ LCHEEK_CFD_BM_234_172_N.png
",0,0,0,0,4,21,401,30,,,,,,,,,,,,2023-04-07_19h46.16.377,FaceAttractiveness,2022.2.5,145.23400099087033,
treatment,0% Never,100% Always,images\ LIP_035_M_F_N_A.png,0,0,0,0,4,22,402,39,,,,,,,,,,,,2023-04-07_19h46.16.377,FaceAttractiveness,2022.2.5,145.23400099087033,
treatment,0% Never,100% Always,images\ LCHEEK_CFD_LM_203_026_N.png,0,0,0,0,4,23,403,33,,,,,,,,,,,,2023-04-07_19h46.16.377,FaceAttractiveness,2022.2.5,145.23400099087033,
treatment,0% Never,100% Always,images\FOREHEAD_CFD_WF_200_099_N.png,0,0,0,0,4,24,404,16,,,,,,,,,,,,2023-04-07_19h46.16.377,FaceAttractiveness,2022.2.5,145.23400099087033,
treatment,0% Never,100% Always,"images\ LIP_CFD_AM_233_236_N.png
",0,0,0,0,4,25,405,45,,,,,,,,,,,,2023-04-07_19h46.16.377,FaceAttractiveness,2022.2.5,145.23400099087033,
treatment,0% Never,100% Always,"images\ LCHEEK_CFD_WF_002_004_N.png
",0,0,0,0,4,26,406,34,,,,,,,,,,,,2023-04-07_19h46.16.377,FaceAttractiveness,2022.2.5,145.23400099087033,
treatment,0% Never,100% Always,images\ LIP_CFD_AF_237_223_N.png,0,0,0,0,4,27,407,43,,,,,,,,,,,,2023-04-07_19h46.16.377,FaceAttractiveness,2022.2.5,145.23400099087033,
treatment,0% Never,100% Always,images\FOREHEAD_CFD_AF_231_357_N.png,0,0,0,0,4,28,408,4,,,,,,,,,,,,2023-04-07_19h46.16.377,FaceAttractiveness,2022.2.5,145.23400099087033,
treatment,0% Never,100% Always,images\FOREHEAD_136_M_M_N_A.png,0,0,0,0,4,29,409,3,,,,,,,,,,,,2023-04-07_19h46.16.377,FaceAttractiveness,2022.2.5,145.23400099087033,
treatment,0% Never,100% Always,images\FOREHEAD_CFD_WF_250_167_N.png,0,0,0,0,4,30,410,17,,,,,,,,,,,,2023-04-07_19h46.16.377,FaceAttractiveness,2022.2.5,145.23400099087033,
treatment,0% Never,100% Always,images\ LIP_CFD_BF_214_308_N.png,0,0,0,0,4,31,411,46,,,,,,,,,,,,2023-04-07_19h46.16.377,FaceAttractiveness,2022.2.5,145.23400099087033,
treatment,0% Never,100% Always,"images\ LIP_136_M_M_N_A.png
",0,0,0,0,4,32,412,41,,,,,,,,,,,,2023-04-07_19h46.16.377,FaceAttractiveness,2022.2.5,145.23400099087033,
treatment,0% Never,100% Always,images\ LIP_CFD_LM_203_026_N.png,0,0,0,0,4,33,413,52,,,,,,,,,,,,2023-04-07_19h46.16.377,FaceAttractiveness,2022.2.5,145.23400099087033,
treatment,0% Never,100% Always,images\ NASALTIP_CFD_BF_224_002_N.png,0,0,0,0,4,34,414,66,,,,,,,,,,,,2023-04-07_19h46.16.377,FaceAttractiveness,2022.2.5,145.23400099087033,
treatment,0% Never,100% Always,images\FOREHEAD_CFD_LF_224_176_N.png,0,0,0,0,4,35,415,12,,,,,,,,,,,,2023-04-07_19h46.16.377,FaceAttractiveness,2022.2.5,145.23400099087033,
treatment,0% Never,100% Always,"images\ RCHEEK_CFD_WF_002_004_N.png
",0,0,0,0,4,36,416,91,,,,,,,,,,,,2023-04-07_19h46.16.377,FaceAttractiveness,2022.2.5,145.23400099087033,
treatment,0% Never,100% Always,images\ RCHEEK_CFD_WF_250_167_N.png,0,0,0,0,4,37,417,93,,,,,,,,,,,,2023-04-07_19h46.16.377,FaceAttractiveness,2022.2.5,145.23400099087033,
treatment,0% Never,100% Always,images\ NASALTIP_CFD_AF_231_357_N.png,0,0,0,0,4,38,418,61,,,,,,,,,,,,2023-04-07_19h46.16.377,FaceAttractiveness,2022.2.5,145.23400099087033,
treatment,0% Never,100% Always,images\ LIP_CFD_BF_224_002_N.png,0,0,0,0,4,39,419,47,,,,,,,,,,,,2023-04-07_19h46.16.377,FaceAttractiveness,2022.2.5,145.23400099087033,
treatment,0% Never,100% Always,"images\ LIP_CFD_BM_234_172_N.png
",0,0,0,0,4,40,420,49,,,,,,,,,,,,2023-04-07_19h46.16.377,FaceAttractiveness,2022.2.5,145.23400099087033,
treatment,0% Never,100% Always,"images\ RCHEEK_136_M_M_N_A.png
",0,0,0,0,4,41,421,79,,,,,,,,,,,,2023-04-07_19h46.16.377,FaceAttractiveness,2022.2.5,145.23400099087033,
treatment,0% Never,100% Always,images\ NASALTIP_006_M_F_N_A.png,0,0,0,0,4,42,422,57,,,,,,,,,,,,2023-04-07_19h46.16.377,FaceAttractiveness,2022.2.5,145.23400099087033,
treatment,0% Never,100% Always,images\ RCHEEK_CFD_BF_224_002_N.png,0,0,0,0,4,43,423,85,,,,,,,,,,,,2023-04-07_19h46.16.377,FaceAttractiveness,2022.2.5,145.23400099087033,
treatment,0% Never,100% Always,images\ LCHEEK_CFD_AF_237_223_N.png,0,0,0,0,4,44,424,24,,,,,,,,,,,,2023-04-07_19h46.16.377,FaceAttractiveness,2022.2.5,145.23400099087033,
treatment,0% Never,100% Always,images\ RCHEEK_CFD_BM_213_134_N.png,0,0,0,0,4,45,425,86,,,,,,,,,,,,2023-04-07_19h46.16.377,FaceAttractiveness,2022.2.5,145.23400099087033,
treatment,0% Never,100% Always,images\FOREHEAD_CFD_WM_212_097_N.png,0,0,0,0,4,46,426,18,,,,,,,,,,,,2023-04-07_19h46.16.377,FaceAttractiveness,2022.2.5,145.23400099087033,
treatment,0% Never,100% Always,images\ LIP_CFD_WM_212_097_N.png,0,0,0,0,4,47,427,56,,,,,,,,,,,,2023-04-07_19h46.16.377,FaceAttractiveness,2022.2.5,145.23400099087033,
treatment,0% Never,100% Always,images\ RCHEEK_CFD_BF_214_308_N.png,0,0,0,0,4,48,428,84,,,,,,,,,,,,2023-04-07_19h46.16.377,FaceAttractiveness,2022.2.5,145.23400099087033,
treatment,0% Never,100% Always,images\ LCHEEK_CFD_WF_250_167_N.png,0,0,0,0,4,49,429,36,,,,,,,,,,,,2023-04-07_19h46.16.377,FaceAttractiveness,2022.2.5,145.23400099087033,
treatment,0% Never,100% Always,images\FOREHEAD_CFD_BM_234_172_N.png,0,0,0,0,4,50,430,11,,,,,,,,,,,,2023-04-07_19h46.16.377,FaceAttractiveness,2022.2.5,145.23400099087033,
treatment,0% Never,100% Always,"images\ RCHEEK_CFD_BM_234_172_N.png
",0,0,0,0,4,51,431,87,,,,,,,,,,,,2023-04-07_19h46.16.377,FaceAttractiveness,2022.2.5,145.23400099087033,
treatment,0% Never,100% Always,images\FOREHEAD_CFD_LM_201_057_N.png,0,0,0,0,4,52,432,13,,,,,,,,,,,,2023-04-07_19h46.16.377,FaceAttractiveness,2022.2.5,145.23400099087033,
treatment,0% Never,100% Always,images\ NASALTIP_CFD_AF_245_143_N.png,0,0,0,0,4,53,433,63,,,,,,,,,,,,2023-04-07_19h46.16.377,FaceAttractiveness,2022.2.5,145.23400099087033,
treatment,0% Never,100% Always,images\ NASALTIP_CFD_LF_224_176_N.png,0,0,0,0,4,54,434,69,,,,,,,,,,,,2023-04-07_19h46.16.377,FaceAttractiveness,2022.2.5,145.23400099087033,
treatment,0% Never,100% Always,images\ RCHEEK_087_M_M_N_A.png,0,0,0,0,4,55,435,78,,,,,,,,,,,,2023-04-07_19h46.16.377,FaceAttractiveness,2022.2.5,145.23400099087033,
treatment,0% Never,100% Always,"images\ RCHEEK_CFD_AM_233_236_N.png
",0,0,0,0,4,56,436,83,,,,,,,,,,,,2023-04-07_19h46.16.377,FaceAttractiveness,2022.2.5,145.23400099087033,
treatment,0% Never,100% Always,images\ LCHEEK_087_M_M_N_A.png,0,0,0,0,4,57,437,21,,,,,,,,,,,,2023-04-07_19h46.16.377,FaceAttractiveness,2022.2.5,145.23400099087033,
treatment,0% Never,100% Always,images\ RCHEEK_006_M_F_N_A.png,0,0,0,0,4,58,438,76,,,,,,,,,,,,2023-04-07_19h46.16.377,FaceAttractiveness,2022.2.5,145.23400099087033,
treatment,0% Never,100% Always,"images\ NASALTIP_CFD_AM_233_236_N.png
",0,0,0,0,4,59,439,64,,,,,,,,,,,,2023-04-07_19h46.16.377,FaceAttractiveness,2022.2.5,145.23400099087033,
treatment,0% Never,100% Always,images\ LIP_CFD_WF_200_099_N.png,0,0,0,0,4,60,440,54,,,,,,,,,,,,2023-04-07_19h46.16.377,FaceAttractiveness,2022.2.5,145.23400099087033,
treatment,0% Never,100% Always,images\ LIP_CFD_AF_245_143_N.png,0,0,0,0,4,61,441,44,,,,,,,,,,,,2023-04-07_19h46.16.377,FaceAttractiveness,2022.2.5,145.23400099087033,
treatment,0% Never,100% Always,"images\ LIP_CFD_WF_002_004_N.png
",0,0,0,0,4,62,442,53,,,,,,,,,,,,2023-04-07_19h46.16.377,FaceAttractiveness,2022.2.5,145.23400099087033,
treatment,0% Never,100% Always,"images\ NASALTIP_CFD_WF_002_004_N.png
",0,0,0,0,4,63,443,72,,,,,,,,,,,,2023-04-07_19h46.16.377,FaceAttractiveness,2022.2.5,145.23400099087033,
treatment,0% Never,100% Always,images\ LIP_CFD_AF_231_357_N.png,0,0,0,0,4,64,444,42,,,,,,,,,,,,2023-04-07_19h46.16.377,FaceAttractiveness,2022.2.5,145.23400099087033,
treatment,0% Never,100% Always,images\ LCHEEK_035_M_F_N_A.png,0,0,0,0,4,65,445,20,,,,,,,,,,,,2023-04-07_19h46.16.377,FaceAttractiveness,2022.2.5,145.23400099087033,
treatment,0% Never,100% Always,images\FOREHEAD_087_M_M_N_A.png,0,0,0,0,4,66,446,2,,,,,,,,,,,,2023-04-07_19h46.16.377,FaceAttractiveness,2022.2.5,145.23400099087033,
treatment,0% Never,100% Always,images\ NASALTIP_CFD_AF_237_223_N.png,0,0,0,0,4,67,447,62,,,,,,,,,,,,2023-04-07_19h46.16.377,FaceAttractiveness,2022.2.5,145.23400099087033,
treatment,0% Never,100% Always,images\ RCHEEK_035_M_F_N_A.png,0,0,0,0,4,68,448,77,,,,,,,,,,,,2023-04-07_19h46.16.377,FaceAttractiveness,2022.2.5,145.23400099087033,
treatment,0% Never,100% Always,images\ LCHEEK_CFD_WF_200_099_N.png,0,0,0,0,4,69,449,35,,,,,,,,,,,,2023-04-07_19h46.16.377,FaceAttractiveness,2022.2.5,145.23400099087033,
treatment,0% Never,100% Always,images\ RCHEEK_CFD_AF_245_143_N.png,0,0,0,0,4,70,450,82,,,,,,,,,,,,2023-04-07_19h46.16.377,FaceAttractiveness,2022.2.5,145.23400099087033,
treatment,0% Never,100% Always,"images\ LCHEEK_136_M_M_N_A.png
",0,0,0,0,4,71,451,22,,,,,,,,,,,,2023-04-07_19h46.16.377,FaceAttractiveness,2022.2.5,145.23400099087033,
treatment,0% Never,100% Always,images\ LIP_087_M_M_N_A.png,0,0,0,0,4,72,452,40,,,,,,,,,,,,2023-04-07_19h46.16.377,FaceAttractiveness,2022.2.5,145.23400099087033,
treatment,0% Never,100% Always,images\ NASALTIP_CFD_WM_212_097_N.png,0,0,0,0,4,73,453,75,,,,,,,,,,,,2023-04-07_19h46.16.377,FaceAttractiveness,2022.2.5,145.23400099087033,
treatment,0% Never,100% Always,images\FOREHEAD_CFD_LM_203_026_N.png,0,0,0,0,4,74,454,14,,,,,,,,,,,,2023-04-07_19h46.16.377,FaceAttractiveness,2022.2.5,145.23400099087033,
treatment,0% Never,100% Always,images\FOREHEAD_CFD_BF_224_002_N.png,0,0,0,0,4,75,455,9,,,,,,,,,,,,2023-04-07_19h46.16.377,FaceAttractiveness,2022.2.5,145.23400099087033,
treatment,0% Never,100% Always,images\ RCHEEK_CFD_WF_200_099_N.png,0,0,0,0,4,76,456,92,,,,,,,,,,,,2023-04-07_19h46.16.377,FaceAttractiveness,2022.2.5,145.23400099087033,
treatment,0% Never,100% Always,images\FOREHEAD_CFD_BM_213_134_N.png,0,0,0,0,4,77,457,10,,,,,,,,,,,,2023-04-07_19h46.16.377,FaceAttractiveness,2022.2.5,145.23400099087033,
treatment,0% Never,100% Always,images\ LCHEEK_006_M_F_N_A.png,0,0,0,0,4,78,458,19,,,,,,,,,,,,2023-04-07_19h46.16.377,FaceAttractiveness,2022.2.5,145.23400099087033,
treatment,0% Never,100% Always,images\ LCHEEK_CFD_LM_201_057_N.png,0,0,0,0,4,79,459,32,,,,,,,,,,,,2023-04-07_19h46.16.377,FaceAttractiveness,2022.2.5,145.23400099087033,
treatment,0% Never,100% Always,images\ LIP_CFD_LM_201_057_N.png,0,0,0,0,4,80,460,51,,,,,,,,,,,,2023-04-07_19h46.16.377,FaceAttractiveness,2022.2.5,145.23400099087033,
treatment,0% Never,100% Always,images\ RCHEEK_CFD_AF_237_223_N.png,0,0,0,0,4,81,461,81,,,,,,,,,,,,2023-04-07_19h46.16.377,FaceAttractiveness,2022.2.5,145.23400099087033,
treatment,0% Never,100% Always,images\FOREHEAD_006_M_F_N_A.png,0,0,0,0,4,82,462,0,,,,,,,,,,,,2023-04-07_19h46.16.377,FaceAttractiveness,2022.2.5,145.23400099087033,
treatment,0% Never,100% Always,images\ RCHEEK_CFD_LM_203_026_N.png,0,0,0,0,4,83,463,90,,,,,,,,,,,,2023-04-07_19h46.16.377,FaceAttractiveness,2022.2.5,145.23400099087033,
treatment,0% Never,100% Always,images\ NASALTIP_CFD_WF_200_099_N.png,0,0,0,0,4,84,464,73,,,,,,,,,,,,2023-04-07_19h46.16.377,FaceAttractiveness,2022.2.5,145.23400099087033,
treatment,0% Never,100% Always,images\ NASALTIP_CFD_LM_203_026_N.png,0,0,0,0,4,85,465,71,,,,,,,,,,,,2023-04-07_19h46.16.377,FaceAttractiveness,2022.2.5,145.23400099087033,
treatment,0% Never,100% Always,"images\ NASALTIP_CFD_BM_234_172_N.png
",0,0,0,0,4,86,466,68,,,,,,,,,,,,2023-04-07_19h46.16.377,FaceAttractiveness,2022.2.5,145.23400099087033,
treatment,0% Never,100% Always,images\ RCHEEK_CFD_AF_231_357_N.png,0,0,0,0,4,87,467,80,,,,,,,,,,,,2023-04-07_19h46.16.377,FaceAttractiveness,2022.2.5,145.23400099087033,
treatment,0% Never,100% Always,images\ LCHEEK_CFD_AF_231_357_N.png,0,0,0,0,4,88,468,23,,,,,,,,,,,,2023-04-07_19h46.16.377,FaceAttractiveness,2022.2.5,145.23400099087033,
treatment,0% Never,100% Always,images\ LCHEEK_CFD_BF_224_002_N.png,0,0,0,0,4,89,469,28,,,,,,,,,,,,2023-04-07_19h46.16.377,FaceAttractiveness,2022.2.5,145.23400099087033,
treatment,0% Never,100% Always,images\ LCHEEK_CFD_WM_212_097_N.png,0,0,0,0,4,90,470,37,,,,,,,,,,,,2023-04-07_19h46.16.377,FaceAttractiveness,2022.2.5,145.23400099087033,
treatment,0% Never,100% Always,images\ LCHEEK_CFD_BF_214_308_N.png,0,0,0,0,4,91,471,27,,,,,,,,,,,,2023-04-07_19h46.16.377,FaceAttractiveness,2022.2.5,145.23400099087033,
treatment,0% Never,100% Always,"images\ LCHEEK_CFD_AM_233_236_N.png
",0,0,0,0,4,92,472,26,,,,,,,,,,,,2023-04-07_19h46.16.377,FaceAttractiveness,2022.2.5,145.23400099087033,
treatment,0% Never,100% Always,images\ RCHEEK_CFD_LF_224_176_N.png,0,0,0,0,4,93,473,88,,,,,,,,,,,,2023-04-07_19h46.16.377,FaceAttractiveness,2022.2.5,145.23400099087033,
treatment,0% Never,100% Always,images\ LIP_006_M_F_N_A.png,0,0,0,0,4,94,474,38,,,,,,,,,,,,2023-04-07_19h46.16.377,FaceAttractiveness,2022.2.5,145.23400099087033,
treatment,0% Never,100% Always,images\ LCHEEK_CFD_LM_201_057_N.png,0,0,0,0,5,0,475,32,,,,,,,,,,,,2023-04-07_19h46.16.377,FaceAttractiveness,2022.2.5,145.23400099087033,
treatment,0% Never,100% Always,"images\ LIP_CFD_BM_234_172_N.png
",0,0,0,0,5,1,476,49,,,,,,,,,,,,2023-04-07_19h46.16.377,FaceAttractiveness,2022.2.5,145.23400099087033,
treatment,0% Never,100% Always,images\ NASALTIP_CFD_AF_245_143_N.png,0,0,0,0,5,2,477,63,,,,,,,,,,,,2023-04-07_19h46.16.377,FaceAttractiveness,2022.2.5,145.23400099087033,
treatment,0% Never,100% Always,images\ NASALTIP_CFD_LM_203_026_N.png,0,0,0,0,5,3,478,71,,,,,,,,,,,,2023-04-07_19h46.16.377,FaceAttractiveness,2022.2.5,145.23400099087033,
treatment,0% Never,100% Always,images\ NASALTIP_CFD_BM_213_134_N.png,0,0,0,0,5,4,479,67,,,,,,,,,,,,2023-04-07_19h46.16.377,FaceAttractiveness,2022.2.5,145.23400099087033,
treatment,0% Never,100% Always,images\ LIP_CFD_WM_212_097_N.png,0,0,0,0,5,5,480,56,,,,,,,,,,,,2023-04-07_19h46.16.377,FaceAttractiveness,2022.2.5,145.23400099087033,
treatment,0% Never,100% Always,"images\ LCHEEK_CFD_AM_233_236_N.png
",0,0,0,0,5,6,481,26,,,,,,,,,,,,2023-04-07_19h46.16.377,FaceAttractiveness,2022.2.5,145.23400099087033,
treatment,0% Never,100% Always,images\FOREHEAD_CFD_AF_237_223_N.png,0,0,0,0,5,7,482,5,,,,,,,,,,,,2023-04-07_19h46.16.377,FaceAttractiveness,2022.2.5,145.23400099087033,
treatment,0% Never,100% Always,images\ RCHEEK_CFD_BF_214_308_N.png,0,0,0,0,5,8,483,84,,,,,,,,,,,,2023-04-07_19h46.16.377,FaceAttractiveness,2022.2.5,145.23400099087033,
treatment,0% Never,100% Always,images\FOREHEAD_CFD_BF_214_308_N.png,0,0,0,0,5,9,484,8,,,,,,,,,,,,2023-04-07_19h46.16.377,FaceAttractiveness,2022.2.5,145.23400099087033,
treatment,0% Never,100% Always,images\FOREHEAD_CFD_LM_201_057_N.png,0,0,0,0,5,10,485,13,,,,,,,,,,,,2023-04-07_19h46.16.377,FaceAttractiveness,2022.2.5,145.23400099087033,
treatment,0% Never,100% Always,images\FOREHEAD_CFD_WF_250_167_N.png,0,0,0,0,5,11,486,17,,,,,,,,,,,,2023-04-07_19h46.16.377,FaceAttractiveness,2022.2.5,145.23400099087033,
treatment,0% Never,100% Always,images\ RCHEEK_035_M_F_N_A.png,0,0,0,0,5,12,487,77,,,,,,,,,,,,2023-04-07_19h46.16.377,FaceAttractiveness,2022.2.5,145.23400099087033,
treatment,0% Never,100% Always,images\ LCHEEK_CFD_BM_213_134_N.png,0,0,0,0,5,13,488,29,,,,,,,,,,,,2023-04-07_19h46.16.377,FaceAttractiveness,2022.2.5,145.23400099087033,
treatment,0% Never,100% Always,images\ LCHEEK_CFD_BF_224_002_N.png,0,0,0,0,5,14,489,28,,,,,,,,,,,,2023-04-07_19h46.16.377,FaceAttractiveness,2022.2.5,145.23400099087033,
treatment,0% Never,100% Always,images\ LIP_CFD_LF_224_176_N.png,0,0,0,0,5,15,490,50,,,,,,,,,,,,2023-04-07_19h46.16.377,FaceAttractiveness,2022.2.5,145.23400099087033,
treatment,0% Never,100% Always,images\ LIP_CFD_WF_200_099_N.png,0,0,0,0,5,16,491,54,,,,,,,,,,,,2023-04-07_19h46.16.377,FaceAttractiveness,2022.2.5,145.23400099087033,
treatment,0% Never,100% Always,images\FOREHEAD_CFD_AF_231_357_N.png,0,0,0,0,5,17,492,4,,,,,,,,,,,,2023-04-07_19h46.16.377,FaceAttractiveness,2022.2.5,145.23400099087033,
treatment,0% Never,100% Always,images\ NASALTIP_CFD_WM_212_097_N.png,0,0,0,0,5,18,493,75,,,,,,,,,,,,2023-04-07_19h46.16.377,FaceAttractiveness,2022.2.5,145.23400099087033,
treatment,0% Never,100% Always,"images\ NASALTIP_136_M_M_N_A.png
",0,0,0,0,5,19,494,60,,,,,,,,,,,,2023-04-07_19h46.16.377,FaceAttractiveness,2022.2.5,145.23400099087033,
treatment,0% Never,100% Always,images\ LCHEEK_CFD_AF_237_223_N.png,0,0,0,0,5,20,495,24,,,,,,,,,,,,2023-04-07_19h46.16.377,FaceAttractiveness,2022.2.5,145.23400099087033,
treatment,0% Never,100% Always,images\ NASALTIP_006_M_F_N_A.png,0,0,0,0,5,21,496,57,,,,,,,,,,,,2023-04-07_19h46.16.377,FaceAttractiveness,2022.2.5,145.23400099087033,
treatment,0% Never,100% Always,images\ RCHEEK_CFD_AF_231_357_N.png,0,0,0,0,5,22,497,80,,,,,,,,,,,,2023-04-07_19h46.16.377,FaceAttractiveness,2022.2.5,145.23400099087033,
treatment,0% Never,100% Always,images\FOREHEAD_087_M_M_N_A.png,0,0,0,0,5,23,498,2,,,,,,,,,,,,2023-04-07_19h46.16.377,FaceAttractiveness,2022.2.5,145.23400099087033,
treatment,0% Never,100% Always,images\ RCHEEK_CFD_AF_245_143_N.png,0,0,0,0,5,24,499,82,,,,,,,,,,,,2023-04-07_19h46.16.377,FaceAttractiveness,2022.2.5,145.23400099087033,
treatment,0% Never,100% Always,images\ LIP_035_M_F_N_A.png,0,0,0,0,5,25,500,39,,,,,,,,,,,,2023-04-07_19h46.16.377,FaceAttractiveness,2022.2.5,145.23400099087033,
treatment,0% Never,100% Always,"images\ NASALTIP_CFD_WF_002_004_N.png
",0,0,0,0,5,26,501,72,,,,,,,,,,,,2023-04-07_19h46.16.377,FaceAttractiveness,2022.2.5,145.23400099087033,
treatment,0% Never,100% Always,images\ LIP_087_M_M_N_A.png,0,0,0,0,5,27,502,40,,,,,,,,,,,,2023-04-07_19h46.16.377,FaceAttractiveness,2022.2.5,145.23400099087033,
treatment,0% Never,100% Always,images\FOREHEAD_136_M_M_N_A.png,0,0,0,0,5,28,503,3,,,,,,,,,,,,2023-04-07_19h46.16.377,FaceAttractiveness,2022.2.5,145.23400099087033,
treatment,0% Never,100% Always,images\ NASALTIP_087_M_M_N_A.png,0,0,0,0,5,29,504,59,,,,,,,,,,,,2023-04-07_19h46.16.377,FaceAttractiveness,2022.2.5,145.23400099087033,
treatment,0% Never,100% Always,images\ NASALTIP_CFD_LM_201_057_N.png,0,0,0,0,5,30,505,70,,,,,,,,,,,,2023-04-07_19h46.16.377,FaceAttractiveness,2022.2.5,145.23400099087033,
treatment,0% Never,100% Always,images\ LCHEEK_CFD_WM_212_097_N.png,0,0,0,0,5,31,506,37,,,,,,,,,,,,2023-04-07_19h46.16.377,FaceAttractiveness,2022.2.5,145.23400099087033,
treatment,0% Never,100% Always,images\FOREHEAD_CFD_LM_203_026_N.png,0,0,0,0,5,32,507,14,,,,,,,,,,,,2023-04-07_19h46.16.377,FaceAttractiveness,2022.2.5,145.23400099087033,
treatment,0% Never,100% Always,images\FOREHEAD_CFD_BM_213_134_N.png,0,0,0,0,5,33,508,10,,,,,,,,,,,,2023-04-07_19h46.16.377,FaceAttractiveness,2022.2.5,145.23400099087033,
treatment,0% Never,100% Always,images\ LCHEEK_CFD_BF_214_308_N.png,0,0,0,0,5,34,509,27,,,,,,,,,,,,2023-04-07_19h46.16.377,FaceAttractiveness,2022.2.5,145.23400099087033,
treatment,0% Never,100% Always,images\ LCHEEK_CFD_LM_203_026_N.png,0,0,0,0,5,35,510,33,,,,,,,,,,,,2023-04-07_19h46.16.377,FaceAttractiveness,2022.2.5,145.23400099087033,
treatment,0% Never,100% Always,images\ RCHEEK_CFD_LM_203_026_N.png,0,0,0,0,5,36,511,90,,,,,,,,,,,,2023-04-07_19h46.16.377,FaceAttractiveness,2022.2.5,145.23400099087033,
treatment,0% Never,100% Always,images\ LCHEEK_CFD_AF_245_143_N.png,0,0,0,0,5,37,512,25,,,,,,,,,,,,2023-04-07_19h46.16.377,FaceAttractiveness,2022.2.5,145.23400099087033,
treatment,0% Never,100% Always,images\ LCHEEK_087_M_M_N_A.png,0,0,0,0,5,38,513,21,,,,,,,,,,,,2023-04-07_19h46.16.377,FaceAttractiveness,2022.2.5,145.23400099087033,
treatment,0% Never,100% Always,images\ LIP_006_M_F_N_A.png,0,0,0,0,5,39,514,38,,,,,,,,,,,,2023-04-07_19h46.16.377,FaceAttractiveness,2022.2.5,145.23400099087033,
treatment,0% Never,100% Always,images\ RCHEEK_CFD_WM_212_097_N.png,0,0,0,0,5,40,515,94,,,,,,,,,,,,2023-04-07_19h46.16.377,FaceAttractiveness,2022.2.5,145.23400099087033,
treatment,0% Never,100% Always,"images\ RCHEEK_CFD_WF_002_004_N.png
",0,0,0,0,5,41,516,91,,,,,,,,,,,,2023-04-07_19h46.16.377,FaceAttractiveness,2022.2.5,145.23400099087033,
treatment,0% Never,100% Always,images\ NASALTIP_CFD_AF_237_223_N.png,0,0,0,0,5,42,517,62,,,,,,,,,,,,2023-04-07_19h46.16.377,FaceAttractiveness,2022.2.5,145.23400099087033,
treatment,0% Never,100% Always,images\FOREHEAD_CFD_BM_234_172_N.png,0,0,0,0,5,43,518,11,,,,,,,,,,,,2023-04-07_19h46.16.377,FaceAttractiveness,2022.2.5,145.23400099087033,
treatment,0% Never,100% Always,images\ NASALTIP_CFD_WF_250_167_N.png,0,0,0,0,5,44,519,74,,,,,,,,,,,,2023-04-07_19h46.16.377,FaceAttractiveness,2022.2.5,145.23400099087033,
treatment,0% Never,100% Always,"images\ LIP_136_M_M_N_A.png
",0,0,0,0,5,45,520,41,,,,,,,,,,,,2023-04-07_19h46.16.377,FaceAttractiveness,2022.2.5,145.23400099087033,
treatment,0% Never,100% Always,"images\ LIP_CFD_AM_233_236_N.png
",0,0,0,0,5,46,521,45,,,,,,,,,,,,2023-04-07_19h46.16.377,FaceAttractiveness,2022.2.5,145.23400099087033,
treatment,0% Never,100% Always,images\FOREHEAD_035_M_F_N_A.png,0,0,0,0,5,47,522,1,,,,,,,,,,,,2023-04-07_19h46.16.377,FaceAttractiveness,2022.2.5,145.23400099087033,
treatment,0% Never,100% Always,images\FOREHEAD_CFD_WF_002_004_N.png,0,0,0,0,5,48,523,15,,,,,,,,,,,,2023-04-07_19h46.16.377,FaceAttractiveness,2022.2.5,145.23400099087033,
treatment,0% Never,100% Always,images\ LCHEEK_035_M_F_N_A.png,0,0,0,0,5,49,524,20,,,,,,,,,,,,2023-04-07_19h46.16.377,FaceAttractiveness,2022.2.5,145.23400099087033,
treatment,0% Never,100% Always,images\ LIP_CFD_BF_224_002_N.png,0,0,0,0,5,50,525,47,,,,,,,,,,,,2023-04-07_19h46.16.377,FaceAttractiveness,2022.2.5,145.23400099087033,
treatment,0% Never,100% Always,images\ RCHEEK_CFD_BF_224_002_N.png,0,0,0,0,5,51,526,85,,,,,,,,,,,,2023-04-07_19h46.16.377,FaceAttractiveness,2022.2.5,145.23400099087033,
treatment,0% Never,100% Always,images\FOREHEAD_CFD_AM_233_236_N.png,0,0,0,0,5,52,527,7,,,,,,,,,,,,2023-04-07_19h46.16.377,FaceAttractiveness,2022.2.5,145.23400099087033,
treatment,0% Never,100% Always,images\ RCHEEK_006_M_F_N_A.png,0,0,0,0,5,53,528,76,,,,,,,,,,,,2023-04-07_19h46.16.377,FaceAttractiveness,2022.2.5,145.23400099087033,
treatment,0% Never,100% Always,images\ RCHEEK_CFD_WF_200_099_N.png,0,0,0,0,5,54,529,92,,,,,,,,,,,,2023-04-07_19h46.16.377,FaceAttractiveness,2022.2.5,145.23400099087033,
treatment,0% Never,100% Always,images\FOREHEAD_CFD_WM_212_097_N.png,0,0,0,0,5,55,530,18,,,,,,,,,,,,2023-04-07_19h46.16.377,FaceAttractiveness,2022.2.5,145.23400099087033,
treatment,0% Never,100% Always,images\ LIP_CFD_AF_237_223_N.png,0,0,0,0,5,56,531,43,,,,,,,,,,,,2023-04-07_19h46.16.377,FaceAttractiveness,2022.2.5,145.23400099087033,
treatment,0% Never,100% Always,"images\ LCHEEK_CFD_WF_002_004_N.png
",0,0,0,0,5,57,532,34,,,,,,,,,,,,2023-04-07_19h46.16.377,FaceAttractiveness,2022.2.5,145.23400099087033,
treatment,0% Never,100% Always,images\ RCHEEK_CFD_BM_213_134_N.png,0,0,0,0,5,58,533,86,,,,,,,,,,,,2023-04-07_19h46.16.377,FaceAttractiveness,2022.2.5,145.23400099087033,
treatment,0% Never,100% Always,"images\ NASALTIP_CFD_AM_233_236_N.png
",0,0,0,0,5,59,534,64,,,,,,,,,,,,2023-04-07_19h46.16.377,FaceAttractiveness,2022.2.5,145.23400099087033,
treatment,0% Never,100% Always,"images\ LCHEEK_136_M_M_N_A.png
",0,0,0,0,5,60,535,22,,,,,,,,,,,,2023-04-07_19h46.16.377,FaceAttractiveness,2022.2.5,145.23400099087033,
treatment,0% Never,100% Always,"images\ RCHEEK_CFD_BM_234_172_N.png
",0,0,0,0,5,61,536,87,,,,,,,,,,,,2023-04-07_19h46.16.377,FaceAttractiveness,2022.2.5,145.23400099087033,
treatment,0% Never,100% Always,images\ LCHEEK_CFD_AF_231_357_N.png,0,0,0,0,5,62,537,23,,,,,,,,,,,,2023-04-07_19h46.16.377,FaceAttractiveness,2022.2.5,145.23400099087033,
treatment,0% Never,100% Always,images\ LCHEEK_CFD_WF_200_099_N.png,0,0,0,0,5,63,538,35,,,,,,,,,,,,2023-04-07_19h46.16.377,FaceAttractiveness,2022.2.5,145.23400099087033,
treatment,0% Never,100% Always,images\ RCHEEK_CFD_WF_250_167_N.png,0,0,0,0,5,64,539,93,,,,,,,,,,,,2023-04-07_19h46.16.377,FaceAttractiveness,2022.2.5,145.23400099087033,
treatment,0% Never,100% Always,images\ LIP_CFD_BM_213_134_N.png,0,0,0,0,5,65,540,48,,,,,,,,,,,,2023-04-07_19h46.16.377,FaceAttractiveness,2022.2.5,145.23400099087033,
treatment,0% Never,100% Always,"images\ RCHEEK_CFD_AM_233_236_N.png
",0,0,0,0,5,66,541,83,,,,,,,,,,,,2023-04-07_19h46.16.377,FaceAttractiveness,2022.2.5,145.23400099087033,
treatment,0% Never,100% Always,images\ LCHEEK_CFD_WF_250_167_N.png,0,0,0,0,5,67,542,36,,,,,,,,,,,,2023-04-07_19h46.16.377,FaceAttractiveness,2022.2.5,145.23400099087033,
treatment,0% Never,100% Always,images\ NASALTIP_CFD_LF_224_176_N.png,0,0,0,0,5,68,543,69,,,,,,,,,,,,2023-04-07_19h46.16.377,FaceAttractiveness,2022.2.5,145.23400099087033,
treatment,0% Never,100% Always,images\ LIP_CFD_AF_231_357_N.png,0,0,0,0,5,69,544,42,,,,,,,,,,,,2023-04-07_19h46.16.377,FaceAttractiveness,2022.2.5,145.23400099087033,
treatment,0% Never,100% Always,"images\ NASALTIP_CFD_BM_234_172_N.png
",0,0,0,0,5,70,545,68,,,,,,,,,,,,2023-04-07_19h46.16.377,FaceAttractiveness,2022.2.5,145.23400099087033,
treatment,0% Never,100% Always,images\ RCHEEK_CFD_LF_224_176_N.png,0,0,0,0,5,71,546,88,,,,,,,,,,,,2023-04-07_19h46.16.377,FaceAttractiveness,2022.2.5,145.23400099087033,
treatment,0% Never,100% Always,"images\ RCHEEK_136_M_M_N_A.png
",0,0,0,0,5,72,547,79,,,,,,,,,,,,2023-04-07_19h46.16.377,FaceAttractiveness,2022.2.5,145.23400099087033,
treatment,0% Never,100% Always,images\ RCHEEK_CFD_AF_237_223_N.png,0,0,0,0,5,73,548,81,,,,,,,,,,,,2023-04-07_19h46.16.377,FaceAttractiveness,2022.2.5,145.23400099087033,
treatment,0% Never,100% Always,images\FOREHEAD_CFD_AF_245_143_N.png,0,0,0,0,5,74,549,6,,,,,,,,,,,,2023-04-07_19h46.16.377,FaceAttractiveness,2022.2.5,145.23400099087033,
treatment,0% Never,100% Always,images\ LIP_CFD_AF_245_143_N.png,0,0,0,0,5,75,550,44,,,,,,,,,,,,2023-04-07_19h46.16.377,FaceAttractiveness,2022.2.5,145.23400099087033,
treatment,0% Never,100% Always,images\ LIP_CFD_WF_250_167_N.png,0,0,0,0,5,76,551,55,,,,,,,,,,,,2023-04-07_19h46.16.377,FaceAttractiveness,2022.2.5,145.23400099087033,
treatment,0% Never,100% Always,images\ LIP_CFD_LM_201_057_N.png,0,0,0,0,5,77,552,51,,,,,,,,,,,,2023-04-07_19h46.16.377,FaceAttractiveness,2022.2.5,145.23400099087033,
treatment,0% Never,100% Always,images\ RCHEEK_CFD_LM_201_057_N.png,0,0,0,0,5,78,553,89,,,,,,,,,,,,2023-04-07_19h46.16.377,FaceAttractiveness,2022.2.5,145.23400099087033,
treatment,0% Never,100% Always,images\ NASALTIP_CFD_BF_214_308_N.png,0,0,0,0,5,79,554,65,,,,,,,,,,,,2023-04-07_19h46.16.377,FaceAttractiveness,2022.2.5,145.23400099087033,
treatment,0% Never,100% Always,images\ NASALTIP_CFD_AF_231_357_N.png,0,0,0,0,5,80,555,61,,,,,,,,,,,,2023-04-07_19h46.16.377,FaceAttractiveness,2022.2.5,145.23400099087033,
treatment,0% Never,100% Always,images\ LCHEEK_CFD_LF_224_176_N.png,0,0,0,0,5,81,556,31,,,,,,,,,,,,2023-04-07_19h46.16.377,FaceAttractiveness,2022.2.5,145.23400099087033,
treatment,0% Never,100% Always,images\ LCHEEK_006_M_F_N_A.png,0,0,0,0,5,82,557,19,,,,,,,,,,,,2023-04-07_19h46.16.377,FaceAttractiveness,2022.2.5,145.23400099087033,
treatment,0% Never,100% Always,images\ NASALTIP_CFD_WF_200_099_N.png,0,0,0,0,5,83,558,73,,,,,,,,,,,,2023-04-07_19h46.16.377,FaceAttractiveness,2022.2.5,145.23400099087033,
treatment,0% Never,100% Always,images\ LIP_CFD_BF_214_308_N.png,0,0,0,0,5,84,559,46,,,,,,,,,,,,2023-04-07_19h46.16.377,FaceAttractiveness,2022.2.5,145.23400099087033,
treatment,0% Never,100% Always,"images\ LCHEEK_CFD_BM_234_172_N.png
",0,0,0,0,5,85,560,30,,,,,,,,,,,,2023-04-07_19h46.16.377,FaceAttractiveness,2022.2.5,145.23400099087033,
treatment,0% Never,100% Always,images\ NASALTIP_CFD_BF_224_002_N.png,0,0,0,0,5,86,561,66,,,,,,,,,,,,2023-04-07_19h46.16.377,FaceAttractiveness,2022.2.5,145.23400099087033,
treatment,0% Never,100% Always,images\ RCHEEK_087_M_M_N_A.png,0,0,0,0,5,87,562,78,,,,,,,,,,,,2023-04-07_19h46.16.377,FaceAttractiveness,2022.2.5,145.23400099087033,
treatment,0% Never,100% Always,"images\ LIP_CFD_WF_002_004_N.png
",0,0,0,0,5,88,563,53,,,,,,,,,,,,2023-04-07_19h46.16.377,FaceAttractiveness,2022.2.5,145.23400099087033,
treatment,0% Never,100% Always,images\ LIP_CFD_LM_203_026_N.png,0,0,0,0,5,89,564,52,,,,,,,,,,,,2023-04-07_19h46.16.377,FaceAttractiveness,2022.2.5,145.23400099087033,
treatment,0% Never,100% Always,images\FOREHEAD_CFD_WF_200_099_N.png,0,0,0,0,5,90,565,16,,,,,,,,,,,,2023-04-07_19h46.16.377,FaceAttractiveness,2022.2.5,145.23400099087033,
treatment,0% Never,100% Always,images\FOREHEAD_CFD_LF_224_176_N.png,0,0,0,0,5,91,566,12,,,,,,,,,,,,2023-04-07_19h46.16.377,FaceAttractiveness,2022.2.5,145.23400099087033,
treatment,0% Never,100% Always,images\ NASALTIP_035_M_F_N_A.png,0,0,0,0,5,92,567,58,,,,,,,,,,,,2023-04-07_19h46.16.377,FaceAttractiveness,2022.2.5,145.23400099087033,
treatment,0% Never,100% Always,images\FOREHEAD_CFD_BF_224_002_N.png,0,0,0,0,5,93,568,9,,,,,,,,,,,,2023-04-07_19h46.16.377,FaceAttractiveness,2022.2.5,145.23400099087033,
treatment,0% Never,100% Always,images\FOREHEAD_006_M_F_N_A.png,0,0,0,0,5,94,569,0,,,,,,,,,,,,2023-04-07_19h46.16.377,FaceAttractiveness,2022.2.5,145.23400099087033,
treatment,0% Never,100% Always,images\ RCHEEK_CFD_AF_237_223_N.png,0,0,0,0,6,0,570,81,,,,,,,,,,,,2023-04-07_19h46.16.377,FaceAttractiveness,2022.2.5,145.23400099087033,
treatment,0% Never,100% Always,images\FOREHEAD_CFD_BF_224_002_N.png,0,0,0,0,6,1,571,9,,,,,,,,,,,,2023-04-07_19h46.16.377,FaceAttractiveness,2022.2.5,145.23400099087033,
treatment,0% Never,100% Always,"images\ LIP_CFD_WF_002_004_N.png
",0,0,0,0,6,2,572,53,,,,,,,,,,,,2023-04-07_19h46.16.377,FaceAttractiveness,2022.2.5,145.23400099087033,
treatment,0% Never,100% Always,images\ NASALTIP_CFD_AF_245_143_N.png,0,0,0,0,6,3,573,63,,,,,,,,,,,,2023-04-07_19h46.16.377,FaceAttractiveness,2022.2.5,145.23400099087033,
treatment,0% Never,100% Always,"images\ LCHEEK_CFD_AM_233_236_N.png
",0,0,0,0,6,4,574,26,,,,,,,,,,,,2023-04-07_19h46.16.377,FaceAttractiveness,2022.2.5,145.23400099087033,
treatment,0% Never,100% Always,images\FOREHEAD_CFD_WF_250_167_N.png,0,0,0,0,6,5,575,17,,,,,,,,,,,,2023-04-07_19h46.16.377,FaceAttractiveness,2022.2.5,145.23400099087033,
treatment,0% Never,100% Always,images\FOREHEAD_CFD_LM_203_026_N.png,0,0,0,0,6,6,576,14,,,,,,,,,,,,2023-04-07_19h46.16.377,FaceAttractiveness,2022.2.5,145.23400099087033,
treatment,0% Never,100% Always,"images\ NASALTIP_CFD_WF_002_004_N.png
",0,0,0,0,6,7,577,72,,,,,,,,,,,,2023-04-07_19h46.16.377,FaceAttractiveness,2022.2.5,145.23400099087033,
treatment,0% Never,100% Always,images\ NASALTIP_035_M_F_N_A.png,0,0,0,0,6,8,578,58,,,,,,,,,,,,2023-04-07_19h46.16.377,FaceAttractiveness,2022.2.5,145.23400099087033,
treatment,0% Never,100% Always,images\ LCHEEK_CFD_LM_201_057_N.png,0,0,0,0,6,9,579,32,,,,,,,,,,,,2023-04-07_19h46.16.377,FaceAttractiveness,2022.2.5,145.23400099087033,
treatment,0% Never,100% Always,"images\ LIP_CFD_AM_233_236_N.png
",0,0,0,0,6,10,580,45,,,,,,,,,,,,2023-04-07_19h46.16.377,FaceAttractiveness,2022.2.5,145.23400099087033,
treatment,0% Never,100% Always,"images\ RCHEEK_CFD_AM_233_236_N.png
",0,0,0,0,6,11,581,83,,,,,,,,,,,,2023-04-07_19h46.16.377,FaceAttractiveness,2022.2.5,145.23400099087033,
treatment,0% Never,100% Always,images\ LIP_035_M_F_N_A.png,0,0,0,0,6,12,582,39,,,,,,,,,,,,2023-04-07_19h46.16.377,FaceAttractiveness,2022.2.5,145.23400099087033,
treatment,0% Never,100% Always,images\ LCHEEK_CFD_BF_224_002_N.png,0,0,0,0,6,13,583,28,,,,,,,,,,,,2023-04-07_19h46.16.377,FaceAttractiveness,2022.2.5,145.23400099087033,
treatment,0% Never,100% Always,images\ LCHEEK_CFD_AF_245_143_N.png,0,0,0,0,6,14,584,25,,,,,,,,,,,,2023-04-07_19h46.16.377,FaceAttractiveness,2022.2.5,145.23400099087033,
treatment,0% Never,100% Always,"images\ NASALTIP_CFD_AM_233_236_N.png
",0,0,0,0,6,15,585,64,,,,,,,,,,,,2023-04-07_19h46.16.377,FaceAttractiveness,2022.2.5,145.23400099087033,
treatment,0% Never,100% Always,images\FOREHEAD_136_M_M_N_A.png,0,0,0,0,6,16,586,3,,,,,,,,,,,,2023-04-07_19h46.16.377,FaceAttractiveness,2022.2.5,145.23400099087033,
treatment,0% Never,100% Always,images\ RCHEEK_CFD_WF_200_099_N.png,0,0,0,0,6,17,587,92,,,,,,,,,,,,2023-04-07_19h46.16.377,FaceAttractiveness,2022.2.5,145.23400099087033,
