faceImages,RatingBlockOrder.thisRepN,RatingBlockOrder.thisTrialN,RatingBlockOrder.thisN,RatingBlockOrder.thisIndex,originalFaceTrials.thisRepN,originalFaceTrials.thisTrialN,originalFaceTrials.thisN,originalFaceTrials.thisIndex,Name,Gender,Age,Ethnicity,date,expName,psychopyVersion,frameRate,
"images\ LCHEEK_CFD_WF_002_004_N.png
",0,0,0,8,0,0,0,34,,,,,2023-04-07_20h02.24.384,FaceAttractiveness,2022.2.5,142.17349145020663,
images\ NASALTIP_CFD_WF_200_099_N.png,0,0,0,8,0,1,1,73,,,,,2023-04-07_20h02.24.384,FaceAttractiveness,2022.2.5,142.17349145020663,
images\ RCHEEK_CFD_LF_224_176_N.png,0,0,0,8,0,2,2,88,,,,,2023-04-07_20h02.24.384,FaceAttractiveness,2022.2.5,142.17349145020663,
images\FOREHEAD_CFD_LF_224_176_N.png,0,0,0,8,0,3,3,12,,,,,2023-04-07_20h02.24.384,FaceAttractiveness,2022.2.5,142.17349145020663,
images\ NASALTIP_006_M_F_N_A.png,0,0,0,8,0,4,4,57,,,,,2023-04-07_20h02.24.384,FaceAttractiveness,2022.2.5,142.17349145020663,
"images\ LIP_CFD_AM_233_236_N.png
",0,0,0,8,0,5,5,45,,,,,2023-04-07_20h02.24.384,FaceAttractiveness,2022.2.5,142.17349145020663,
images\FOREHEAD_CFD_WF_200_099_N.png,0,0,0,8,0,6,6,16,,,,,2023-04-07_20h02.24.384,FaceAttractiveness,2022.2.5,142.17349145020663,
images\FOREHEAD_CFD_AM_233_236_N.png,0,0,0,8,0,7,7,7,,,,,2023-04-07_20h02.24.384,FaceAttractiveness,2022.2.5,142.17349145020663,
images\ LCHEEK_087_M_M_N_A.png,0,0,0,8,0,8,8,21,,,,,2023-04-07_20h02.24.384,FaceAttractiveness,2022.2.5,142.17349145020663,
images\ NASALTIP_CFD_AF_231_357_N.png,0,0,0,8,0,9,9,61,,,,,2023-04-07_20h02.24.384,FaceAttractiveness,2022.2.5,142.17349145020663,
"images\ NASALTIP_CFD_WF_002_004_N.png
",0,0,0,8,0,10,10,72,,,,,2023-04-07_20h02.24.384,FaceAttractiveness,2022.2.5,142.17349145020663,
"images\ RCHEEK_136_M_M_N_A.png
",0,0,0,8,0,11,11,79,,,,,2023-04-07_20h02.24.384,FaceAttractiveness,2022.2.5,142.17349145020663,
"images\ NASALTIP_CFD_BM_234_172_N.png
",0,0,0,8,0,12,12,68,,,,,2023-04-07_20h02.24.384,FaceAttractiveness,2022.2.5,142.17349145020663,
images\ LCHEEK_CFD_LF_224_176_N.png,0,0,0,8,0,13,13,31,,,,,2023-04-07_20h02.24.384,FaceAttractiveness,2022.2.5,142.17349145020663,
images\ LCHEEK_CFD_AF_237_223_N.png,0,0,0,8,0,14,14,24,,,,,2023-04-07_20h02.24.384,FaceAttractiveness,2022.2.5,142.17349145020663,
"images\ LIP_CFD_BM_234_172_N.png
",0,0,0,8,0,15,15,49,,,,,2023-04-07_20h02.24.384,FaceAttractiveness,2022.2.5,142.17349145020663,
"images\ LIP_CFD_WF_002_004_N.png
",0,0,0,8,0,16,16,53,,,,,2023-04-07_20h02.24.384,FaceAttractiveness,2022.2.5,142.17349145020663,
images\ LIP_CFD_BF_214_308_N.png,0,0,0,8,0,17,17,46,,,,,2023-04-07_20h02.24.384,FaceAttractiveness,2022.2.5,142.17349145020663,
images\ RCHEEK_CFD_LM_203_026_N.png,0,0,0,8,0,18,18,90,,,,,2023-04-07_20h02.24.384,FaceAttractiveness,2022.2.5,142.17349145020663,
images\ LIP_CFD_LM_201_057_N.png,0,0,0,8,0,19,19,51,,,,,2023-04-07_20h02.24.384,FaceAttractiveness,2022.2.5,142.17349145020663,
images\ RCHEEK_CFD_LM_201_057_N.png,0,0,0,8,0,20,20,89,,,,,2023-04-07_20h02.24.384,FaceAttractiveness,2022.2.5,142.17349145020663,
images\FOREHEAD_CFD_BF_214_308_N.png,0,0,0,8,0,21,21,8,,,,,2023-04-07_20h02.24.384,FaceAttractiveness,2022.2.5,142.17349145020663,
images\ NASALTIP_CFD_BM_213_134_N.png,0,0,0,8,0,22,22,67,,,,,2023-04-07_20h02.24.384,FaceAttractiveness,2022.2.5,142.17349145020663,
images\ LCHEEK_CFD_WM_212_097_N.png,0,0,0,8,0,23,23,37,,,,,2023-04-07_20h02.24.384,FaceAttractiveness,2022.2.5,142.17349145020663,
images\ RCHEEK_CFD_BF_214_308_N.png,0,0,0,8,0,24,24,84,,,,,2023-04-07_20h02.24.384,FaceAttractiveness,2022.2.5,142.17349145020663,
images\ LCHEEK_CFD_AF_231_357_N.png,0,0,0,8,0,25,25,23,,,,,2023-04-07_20h02.24.384,FaceAttractiveness,2022.2.5,142.17349145020663,
images\ NASALTIP_CFD_BF_224_002_N.png,0,0,0,8,0,26,26,66,,,,,2023-04-07_20h02.24.384,FaceAttractiveness,2022.2.5,142.17349145020663,
"images\ NASALTIP_CFD_AM_233_236_N.png
",0,0,0,8,0,27,27,64,,,,,2023-04-07_20h02.24.384,FaceAttractiveness,2022.2.5,142.17349145020663,
images\ NASALTIP_087_M_M_N_A.png,0,0,0,8,0,28,28,59,,,,,2023-04-07_20h02.24.384,FaceAttractiveness,2022.2.5,142.17349145020663,
images\ LCHEEK_CFD_BF_224_002_N.png,0,0,0,8,0,29,29,28,,,,,2023-04-07_20h02.24.384,FaceAttractiveness,2022.2.5,142.17349145020663,
images\ RCHEEK_CFD_AF_231_357_N.png,0,0,0,8,0,30,30,80,,,,,2023-04-07_20h02.24.384,FaceAttractiveness,2022.2.5,142.17349145020663,
images\FOREHEAD_CFD_BM_213_134_N.png,0,0,0,8,0,31,31,10,,,,,2023-04-07_20h02.24.384,FaceAttractiveness,2022.2.5,142.17349145020663,
images\ NASALTIP_CFD_WM_212_097_N.png,0,0,0,8,0,32,32,75,,,,,2023-04-07_20h02.24.384,FaceAttractiveness,2022.2.5,142.17349145020663,
"images\ RCHEEK_CFD_AM_233_236_N.png
",0,0,0,8,0,33,33,83,,,,,2023-04-07_20h02.24.384,FaceAttractiveness,2022.2.5,142.17349145020663,
images\FOREHEAD_087_M_M_N_A.png,0,0,0,8,0,34,34,2,,,,,2023-04-07_20h02.24.384,FaceAttractiveness,2022.2.5,142.17349145020663,
"images\ RCHEEK_CFD_WF_002_004_N.png
",0,0,0,8,0,35,35,91,,,,,2023-04-07_20h02.24.384,FaceAttractiveness,2022.2.5,142.17349145020663,
images\ NASALTIP_CFD_AF_237_223_N.png,0,0,0,8,0,36,36,62,,,,,2023-04-07_20h02.24.384,FaceAttractiveness,2022.2.5,142.17349145020663,
images\FOREHEAD_035_M_F_N_A.png,0,0,0,8,0,37,37,1,,,,,2023-04-07_20h02.24.384,FaceAttractiveness,2022.2.5,142.17349145020663,
images\ RCHEEK_035_M_F_N_A.png,0,0,0,8,0,38,38,77,,,,,2023-04-07_20h02.24.384,FaceAttractiveness,2022.2.5,142.17349145020663,
images\ RCHEEK_CFD_AF_245_143_N.png,0,0,0,8,0,39,39,82,,,,,2023-04-07_20h02.24.384,FaceAttractiveness,2022.2.5,142.17349145020663,
images\FOREHEAD_CFD_BF_224_002_N.png,0,0,0,8,0,40,40,9,,,,,2023-04-07_20h02.24.384,FaceAttractiveness,2022.2.5,142.17349145020663,
images\ RCHEEK_CFD_WF_200_099_N.png,0,0,0,8,0,41,41,92,,,,,2023-04-07_20h02.24.384,FaceAttractiveness,2022.2.5,142.17349145020663,
images\ LIP_CFD_BF_224_002_N.png,0,0,0,8,0,42,42,47,,,,,2023-04-07_20h02.24.384,FaceAttractiveness,2022.2.5,142.17349145020663,
images\ NASALTIP_CFD_LF_224_176_N.png,0,0,0,8,0,43,43,69,,,,,2023-04-07_20h02.24.384,FaceAttractiveness,2022.2.5,142.17349145020663,
images\ NASALTIP_035_M_F_N_A.png,0,0,0,8,0,44,44,58,,,,,2023-04-07_20h02.24.384,FaceAttractiveness,2022.2.5,142.17349145020663,
images\ LCHEEK_CFD_BF_214_308_N.png,0,0,0,8,0,45,45,27,,,,,2023-04-07_20h02.24.384,FaceAttractiveness,2022.2.5,142.17349145020663,
images\ LIP_CFD_AF_231_357_N.png,0,0,0,8,0,46,46,42,,,,,2023-04-07_20h02.24.384,FaceAttractiveness,2022.2.5,142.17349145020663,
images\ LCHEEK_CFD_LM_201_057_N.png,0,0,0,8,0,47,47,32,,,,,2023-04-07_20h02.24.384,FaceAttractiveness,2022.2.5,142.17349145020663,
images\FOREHEAD_CFD_WF_002_004_N.png,0,0,0,8,0,48,48,15,,,,,2023-04-07_20h02.24.384,FaceAttractiveness,2022.2.5,142.17349145020663,
images\FOREHEAD_CFD_LM_203_026_N.png,0,0,0,8,0,49,49,14,,,,,2023-04-07_20h02.24.384,FaceAttractiveness,2022.2.5,142.17349145020663,
"images\ LCHEEK_136_M_M_N_A.png
",0,0,0,8,0,50,50,22,,,,,2023-04-07_20h02.24.384,FaceAttractiveness,2022.2.5,142.17349145020663,
images\ LIP_087_M_M_N_A.png,0,0,0,8,0,51,51,40,,,,,2023-04-07_20h02.24.384,FaceAttractiveness,2022.2.5,142.17349145020663,
images\ LIP_035_M_F_N_A.png,0,0,0,8,0,52,52,39,,,,,2023-04-07_20h02.24.384,FaceAttractiveness,2022.2.5,142.17349145020663,
images\FOREHEAD_CFD_AF_245_143_N.png,0,0,0,8,0,53,53,6,,,,,2023-04-07_20h02.24.384,FaceAttractiveness,2022.2.5,142.17349145020663,
images\FOREHEAD_136_M_M_N_A.png,0,0,0,8,0,54,54,3,,,,,2023-04-07_20h02.24.384,FaceAttractiveness,2022.2.5,142.17349145020663,
images\ RCHEEK_CFD_BM_213_134_N.png,0,0,0,8,0,55,55,86,,,,,2023-04-07_20h02.24.384,FaceAttractiveness,2022.2.5,142.17349145020663,
images\ LCHEEK_006_M_F_N_A.png,0,0,0,8,0,56,56,19,,,,,2023-04-07_20h02.24.384,FaceAttractiveness,2022.2.5,142.17349145020663,
images\FOREHEAD_CFD_BM_234_172_N.png,0,0,0,8,0,57,57,11,,,,,2023-04-07_20h02.24.384,FaceAttractiveness,2022.2.5,142.17349145020663,
images\ LIP_CFD_LF_224_176_N.png,0,0,0,8,0,58,58,50,,,,,2023-04-07_20h02.24.384,FaceAttractiveness,2022.2.5,142.17349145020663,
images\ LIP_CFD_AF_237_223_N.png,0,0,0,8,0,59,59,43,,,,,2023-04-07_20h02.24.384,FaceAttractiveness,2022.2.5,142.17349145020663,
images\FOREHEAD_CFD_WM_212_097_N.png,0,0,0,8,0,60,60,18,,,,,2023-04-07_20h02.24.384,FaceAttractiveness,2022.2.5,142.17349145020663,
images\ LCHEEK_035_M_F_N_A.png,0,0,0,8,0,61,61,20,,,,,2023-04-07_20h02.24.384,FaceAttractiveness,2022.2.5,142.17349145020663,
images\FOREHEAD_CFD_AF_231_357_N.png,0,0,0,8,0,62,62,4,,,,,2023-04-07_20h02.24.384,FaceAttractiveness,2022.2.5,142.17349145020663,
images\FOREHEAD_CFD_AF_237_223_N.png,0,0,0,8,0,63,63,5,,,,,2023-04-07_20h02.24.384,FaceAttractiveness,2022.2.5,142.17349145020663,
images\ NASALTIP_CFD_BF_214_308_N.png,0,0,0,8,0,64,64,65,,,,,2023-04-07_20h02.24.384,FaceAttractiveness,2022.2.5,142.17349145020663,
images\ LIP_CFD_WF_200_099_N.png,0,0,0,8,0,65,65,54,,,,,2023-04-07_20h02.24.384,FaceAttractiveness,2022.2.5,142.17349145020663,
images\ LIP_CFD_LM_203_026_N.png,0,0,0,8,0,66,66,52,,,,,2023-04-07_20h02.24.384,FaceAttractiveness,2022.2.5,142.17349145020663,
images\ RCHEEK_CFD_AF_237_223_N.png,0,0,0,8,0,67,67,81,,,,,2023-04-07_20h02.24.384,FaceAttractiveness,2022.2.5,142.17349145020663,
images\ LIP_CFD_AF_245_143_N.png,0,0,0,8,0,68,68,44,,,,,2023-04-07_20h02.24.384,FaceAttractiveness,2022.2.5,142.17349145020663,
images\ NASALTIP_CFD_AF_245_143_N.png,0,0,0,8,0,69,69,63,,,,,2023-04-07_20h02.24.384,FaceAttractiveness,2022.2.5,142.17349145020663,
images\ LIP_CFD_BM_213_134_N.png,0,0,0,8,0,70,70,48,,,,,2023-04-07_20h02.24.384,FaceAttractiveness,2022.2.5,142.17349145020663,
images\FOREHEAD_CFD_WF_250_167_N.png,0,0,0,8,0,71,71,17,,,,,2023-04-07_20h02.24.384,FaceAttractiveness,2022.2.5,142.17349145020663,
images\ LIP_CFD_WM_212_097_N.png,0,0,0,8,0,72,72,56,,,,,2023-04-07_20h02.24.384,FaceAttractiveness,2022.2.5,142.17349145020663,
"images\ NASALTIP_136_M_M_N_A.png
",0,0,0,8,0,73,73,60,,,,,2023-04-07_20h02.24.384,FaceAttractiveness,2022.2.5,142.17349145020663,
images\ LCHEEK_CFD_WF_200_099_N.png,0,0,0,8,0,74,74,35,,,,,2023-04-07_20h02.24.384,FaceAttractiveness,2022.2.5,142.17349145020663,
"images\ LCHEEK_CFD_BM_234_172_N.png
",0,0,0,8,0,75,75,30,,,,,2023-04-07_20h02.24.384,FaceAttractiveness,2022.2.5,142.17349145020663,
images\ RCHEEK_CFD_WF_250_167_N.png,0,0,0,8,0,76,76,93,,,,,2023-04-07_20h02.24.384,FaceAttractiveness,2022.2.5,142.17349145020663,
images\FOREHEAD_CFD_LM_201_057_N.png,0,0,0,8,0,77,77,13,,,,,2023-04-07_20h02.24.384,FaceAttractiveness,2022.2.5,142.17349145020663,
images\ RCHEEK_006_M_F_N_A.png,0,0,0,8,0,78,78,76,,,,,2023-04-07_20h02.24.384,FaceAttractiveness,2022.2.5,142.17349145020663,
images\ NASALTIP_CFD_WF_250_167_N.png,0,0,0,8,0,79,79,74,,,,,2023-04-07_20h02.24.384,FaceAttractiveness,2022.2.5,142.17349145020663,
"images\ LIP_136_M_M_N_A.png
",0,0,0,8,0,80,80,41,,,,,2023-04-07_20h02.24.384,FaceAttractiveness,2022.2.5,142.17349145020663,
"images\ RCHEEK_CFD_BM_234_172_N.png
",0,0,0,8,0,81,81,87,,,,,2023-04-07_20h02.24.384,FaceAttractiveness,2022.2.5,142.17349145020663,
images\ RCHEEK_CFD_BF_224_002_N.png,0,0,0,8,0,82,82,85,,,,,2023-04-07_20h02.24.384,FaceAttractiveness,2022.2.5,142.17349145020663,
images\ LCHEEK_CFD_AF_245_143_N.png,0,0,0,8,0,83,83,25,,,,,2023-04-07_20h02.24.384,FaceAttractiveness,2022.2.5,142.17349145020663,
images\ LCHEEK_CFD_LM_203_026_N.png,0,0,0,8,0,84,84,33,,,,,2023-04-07_20h02.24.384,FaceAttractiveness,2022.2.5,142.17349145020663,
images\ LIP_006_M_F_N_A.png,0,0,0,8,0,85,85,38,,,,,2023-04-07_20h02.24.384,FaceAttractiveness,2022.2.5,142.17349145020663,
images\FOREHEAD_006_M_F_N_A.png,0,0,0,8,0,86,86,0,,,,,2023-04-07_20h02.24.384,FaceAttractiveness,2022.2.5,142.17349145020663,
images\ LCHEEK_CFD_BM_213_134_N.png,0,0,0,8,0,87,87,29,,,,,2023-04-07_20h02.24.384,FaceAttractiveness,2022.2.5,142.17349145020663,
"images\ LCHEEK_CFD_AM_233_236_N.png
",0,0,0,8,0,88,88,26,,,,,2023-04-07_20h02.24.384,FaceAttractiveness,2022.2.5,142.17349145020663,
images\ LIP_CFD_WF_250_167_N.png,0,0,0,8,0,89,89,55,,,,,2023-04-07_20h02.24.384,FaceAttractiveness,2022.2.5,142.17349145020663,
images\ RCHEEK_CFD_WM_212_097_N.png,0,0,0,8,0,90,90,94,,,,,2023-04-07_20h02.24.384,FaceAttractiveness,2022.2.5,142.17349145020663,
images\ NASALTIP_CFD_LM_203_026_N.png,0,0,0,8,0,91,91,71,,,,,2023-04-07_20h02.24.384,FaceAttractiveness,2022.2.5,142.17349145020663,
images\ LCHEEK_CFD_WF_250_167_N.png,0,0,0,8,0,92,92,36,,,,,2023-04-07_20h02.24.384,FaceAttractiveness,2022.2.5,142.17349145020663,
images\ RCHEEK_087_M_M_N_A.png,0,0,0,8,0,93,93,78,,,,,2023-04-07_20h02.24.384,FaceAttractiveness,2022.2.5,142.17349145020663,
images\ NASALTIP_CFD_LM_201_057_N.png,0,0,0,8,0,94,94,70,,,,,2023-04-07_20h02.24.384,FaceAttractiveness,2022.2.5,142.17349145020663,
images\FOREHEAD_CFD_AF_237_223_N.png,0,0,0,8,1,0,95,5,,,,,2023-04-07_20h02.24.384,FaceAttractiveness,2022.2.5,142.17349145020663,
"images\ LIP_CFD_WF_002_004_N.png
",0,0,0,8,1,1,96,53,,,,,2023-04-07_20h02.24.384,FaceAttractiveness,2022.2.5,142.17349145020663,
images\ LCHEEK_CFD_BF_214_308_N.png,0,0,0,8,1,2,97,27,,,,,2023-04-07_20h02.24.384,FaceAttractiveness,2022.2.5,142.17349145020663,
images\FOREHEAD_CFD_AF_245_143_N.png,0,0,0,8,1,3,98,6,,,,,2023-04-07_20h02.24.384,FaceAttractiveness,2022.2.5,142.17349145020663,
"images\ LIP_136_M_M_N_A.png
",0,0,0,8,1,4,99,41,,,,,2023-04-07_20h02.24.384,FaceAttractiveness,2022.2.5,142.17349145020663,
images\ LIP_087_M_M_N_A.png,0,0,0,8,1,5,100,40,,,,,2023-04-07_20h02.24.384,FaceAttractiveness,2022.2.5,142.17349145020663,
images\ RCHEEK_006_M_F_N_A.png,0,0,0,8,1,6,101,76,,,,,2023-04-07_20h02.24.384,FaceAttractiveness,2022.2.5,142.17349145020663,
images\ NASALTIP_CFD_BF_214_308_N.png,0,0,0,8,1,7,102,65,,,,,2023-04-07_20h02.24.384,FaceAttractiveness,2022.2.5,142.17349145020663,
images\ RCHEEK_035_M_F_N_A.png,0,0,0,8,1,8,103,77,,,,,2023-04-07_20h02.24.384,FaceAttractiveness,2022.2.5,142.17349145020663,
images\ LCHEEK_CFD_WF_250_167_N.png,0,0,0,8,1,9,104,36,,,,,2023-04-07_20h02.24.384,FaceAttractiveness,2022.2.5,142.17349145020663,
images\ LCHEEK_035_M_F_N_A.png,0,0,0,8,1,10,105,20,,,,,2023-04-07_20h02.24.384,FaceAttractiveness,2022.2.5,142.17349145020663,
images\FOREHEAD_006_M_F_N_A.png,0,0,0,8,1,11,106,0,,,,,2023-04-07_20h02.24.384,FaceAttractiveness,2022.2.5,142.17349145020663,
images\FOREHEAD_CFD_BF_224_002_N.png,0,0,0,8,1,12,107,9,,,,,2023-04-07_20h02.24.384,FaceAttractiveness,2022.2.5,142.17349145020663,
"images\ NASALTIP_CFD_AM_233_236_N.png
",0,0,0,8,1,13,108,64,,,,,2023-04-07_20h02.24.384,FaceAttractiveness,2022.2.5,142.17349145020663,
images\FOREHEAD_CFD_WM_212_097_N.png,0,0,0,8,1,14,109,18,,,,,2023-04-07_20h02.24.384,FaceAttractiveness,2022.2.5,142.17349145020663,
"images\ LCHEEK_CFD_WF_002_004_N.png
",0,0,0,8,1,15,110,34,,,,,2023-04-07_20h02.24.384,FaceAttractiveness,2022.2.5,142.17349145020663,
images\ LIP_CFD_AF_237_223_N.png,0,0,0,8,1,16,111,43,,,,,2023-04-07_20h02.24.384,FaceAttractiveness,2022.2.5,142.17349145020663,
images\ RCHEEK_CFD_LM_203_026_N.png,0,0,0,8,1,17,112,90,,,,,2023-04-07_20h02.24.384,FaceAttractiveness,2022.2.5,142.17349145020663,
images\ RCHEEK_CFD_BF_224_002_N.png,0,0,0,8,1,18,113,85,,,,,2023-04-07_20h02.24.384,FaceAttractiveness,2022.2.5,142.17349145020663,
images\FOREHEAD_CFD_LM_203_026_N.png,0,0,0,8,1,19,114,14,,,,,2023-04-07_20h02.24.384,FaceAttractiveness,2022.2.5,142.17349145020663,
images\ NASALTIP_CFD_WM_212_097_N.png,0,0,0,8,1,20,115,75,,,,,2023-04-07_20h02.24.384,FaceAttractiveness,2022.2.5,142.17349145020663,
"images\ LCHEEK_CFD_AM_233_236_N.png
",0,0,0,8,1,21,116,26,,,,,2023-04-07_20h02.24.384,FaceAttractiveness,2022.2.5,142.17349145020663,
images\ LCHEEK_CFD_AF_231_357_N.png,0,0,0,8,1,22,117,23,,,,,2023-04-07_20h02.24.384,FaceAttractiveness,2022.2.5,142.17349145020663,
images\ LCHEEK_087_M_M_N_A.png,0,0,0,8,1,23,118,21,,,,,2023-04-07_20h02.24.384,FaceAttractiveness,2022.2.5,142.17349145020663,
images\ NASALTIP_CFD_BF_224_002_N.png,0,0,0,8,1,24,119,66,,,,,2023-04-07_20h02.24.384,FaceAttractiveness,2022.2.5,142.17349145020663,
images\FOREHEAD_CFD_LF_224_176_N.png,0,0,0,8,1,25,120,12,,,,,2023-04-07_20h02.24.384,FaceAttractiveness,2022.2.5,142.17349145020663,
images\ NASALTIP_CFD_BM_213_134_N.png,0,0,0,8,1,26,121,67,,,,,2023-04-07_20h02.24.384,FaceAttractiveness,2022.2.5,142.17349145020663,
"images\ RCHEEK_136_M_M_N_A.png
",0,0,0,8,1,27,122,79,,,,,2023-04-07_20h02.24.384,FaceAttractiveness,2022.2.5,142.17349145020663,
images\FOREHEAD_CFD_AF_231_357_N.png,0,0,0,8,1,28,123,4,,,,,2023-04-07_20h02.24.384,FaceAttractiveness,2022.2.5,142.17349145020663,
images\FOREHEAD_CFD_WF_200_099_N.png,0,0,0,8,1,29,124,16,,,,,2023-04-07_20h02.24.384,FaceAttractiveness,2022.2.5,142.17349145020663,
images\ LCHEEK_CFD_BM_213_134_N.png,0,0,0,8,1,30,125,29,,,,,2023-04-07_20h02.24.384,FaceAttractiveness,2022.2.5,142.17349145020663,
images\ LIP_CFD_BM_213_134_N.png,0,0,0,8,1,31,126,48,,,,,2023-04-07_20h02.24.384,FaceAttractiveness,2022.2.5,142.17349145020663,
images\ LIP_CFD_WF_250_167_N.png,0,0,0,8,1,32,127,55,,,,,2023-04-07_20h02.24.384,FaceAttractiveness,2022.2.5,142.17349145020663,
images\FOREHEAD_CFD_WF_002_004_N.png,0,0,0,8,1,33,128,15,,,,,2023-04-07_20h02.24.384,FaceAttractiveness,2022.2.5,142.17349145020663,
"images\ RCHEEK_CFD_AM_233_236_N.png
",0,0,0,8,1,34,129,83,,,,,2023-04-07_20h02.24.384,FaceAttractiveness,2022.2.5,142.17349145020663,
images\ LIP_006_M_F_N_A.png,0,0,0,8,1,35,130,38,,,,,2023-04-07_20h02.24.384,FaceAttractiveness,2022.2.5,142.17349145020663,
images\FOREHEAD_CFD_BF_214_308_N.png,0,0,0,8,1,36,131,8,,,,,2023-04-07_20h02.24.384,FaceAttractiveness,2022.2.5,142.17349145020663,
images\ LIP_CFD_BF_214_308_N.png,0,0,0,8,1,37,132,46,,,,,2023-04-07_20h02.24.384,FaceAttractiveness,2022.2.5,142.17349145020663,
images\ NASALTIP_CFD_LF_224_176_N.png,0,0,0,8,1,38,133,69,,,,,2023-04-07_20h02.24.384,FaceAttractiveness,2022.2.5,142.17349145020663,
images\ NASALTIP_CFD_AF_231_357_N.png,0,0,0,8,1,39,134,61,,,,,2023-04-07_20h02.24.384,FaceAttractiveness,2022.2.5,142.17349145020663,
images\ LCHEEK_CFD_AF_237_223_N.png,0,0,0,8,1,40,135,24,,,,,2023-04-07_20h02.24.384,FaceAttractiveness,2022.2.5,142.17349145020663,
"images\ LCHEEK_CFD_BM_234_172_N.png
",0,0,0,8,1,41,136,30,,,,,2023-04-07_20h02.24.384,FaceAttractiveness,2022.2.5,142.17349145020663,
images\FOREHEAD_CFD_BM_234_172_N.png,0,0,0,8,1,42,137,11,,,,,2023-04-07_20h02.24.384,FaceAttractiveness,2022.2.5,142.17349145020663,
images\ LIP_CFD_AF_231_357_N.png,0,0,0,8,1,43,138,42,,,,,2023-04-07_20h02.24.384,FaceAttractiveness,2022.2.5,142.17349145020663,
"images\ RCHEEK_CFD_BM_234_172_N.png
",0,0,0,8,1,44,139,87,,,,,2023-04-07_20h02.24.384,FaceAttractiveness,2022.2.5,142.17349145020663,
images\ RCHEEK_CFD_AF_245_143_N.png,0,0,0,8,1,45,140,82,,,,,2023-04-07_20h02.24.384,FaceAttractiveness,2022.2.5,142.17349145020663,
images\ LCHEEK_CFD_AF_245_143_N.png,0,0,0,8,1,46,141,25,,,,,2023-04-07_20h02.24.384,FaceAttractiveness,2022.2.5,142.17349145020663,
images\ LIP_CFD_AF_245_143_N.png,0,0,0,8,1,47,142,44,,,,,2023-04-07_20h02.24.384,FaceAttractiveness,2022.2.5,142.17349145020663,
images\ LIP_CFD_LM_203_026_N.png,0,0,0,8,1,48,143,52,,,,,2023-04-07_20h02.24.384,FaceAttractiveness,2022.2.5,142.17349145020663,
"images\ NASALTIP_CFD_BM_234_172_N.png
",0,0,0,8,1,49,144,68,,,,,2023-04-07_20h02.24.384,FaceAttractiveness,2022.2.5,142.17349145020663,
"images\ NASALTIP_CFD_WF_002_004_N.png
",0,0,0,8,1,50,145,72,,,,,2023-04-07_20h02.24.384,FaceAttractiveness,2022.2.5,142.17349145020663,
images\ NASALTIP_CFD_AF_237_223_N.png,0,0,0,8,1,51,146,62,,,,,2023-04-07_20h02.24.384,FaceAttractiveness,2022.2.5,142.17349145020663,
images\ NASALTIP_035_M_F_N_A.png,0,0,0,8,1,52,147,58,,,,,2023-04-07_20h02.24.384,FaceAttractiveness,2022.2.5,142.17349145020663,
images\FOREHEAD_CFD_LM_201_057_N.png,0,0,0,8,1,53,148,13,,,,,2023-04-07_20h02.24.384,FaceAttractiveness,2022.2.5,142.17349145020663,
images\ LCHEEK_CFD_WF_200_099_N.png,0,0,0,8,1,54,149,35,,,,,2023-04-07_20h02.24.384,FaceAttractiveness,2022.2.5,142.17349145020663,
images\ LCHEEK_CFD_LM_201_057_N.png,0,0,0,8,1,55,150,32,,,,,2023-04-07_20h02.24.384,FaceAttractiveness,2022.2.5,142.17349145020663,
images\FOREHEAD_035_M_F_N_A.png,0,0,0,8,1,56,151,1,,,,,2023-04-07_20h02.24.384,FaceAttractiveness,2022.2.5,142.17349145020663,
images\ LCHEEK_006_M_F_N_A.png,0,0,0,8,1,57,152,19,,,,,2023-04-07_20h02.24.384,FaceAttractiveness,2022.2.5,142.17349145020663,
images\ LIP_CFD_BF_224_002_N.png,0,0,0,8,1,58,153,47,,,,,2023-04-07_20h02.24.384,FaceAttractiveness,2022.2.5,142.17349145020663,
images\FOREHEAD_136_M_M_N_A.png,0,0,0,8,1,59,154,3,,,,,2023-04-07_20h02.24.384,FaceAttractiveness,2022.2.5,142.17349145020663,
images\ LCHEEK_CFD_WM_212_097_N.png,0,0,0,8,1,60,155,37,,,,,2023-04-07_20h02.24.384,FaceAttractiveness,2022.2.5,142.17349145020663,
images\ LIP_CFD_WM_212_097_N.png,0,0,0,8,1,61,156,56,,,,,2023-04-07_20h02.24.384,FaceAttractiveness,2022.2.5,142.17349145020663,
images\ NASALTIP_087_M_M_N_A.png,0,0,0,8,1,62,157,59,,,,,2023-04-07_20h02.24.384,FaceAttractiveness,2022.2.5,142.17349145020663,
images\ LIP_035_M_F_N_A.png,0,0,0,8,1,63,158,39,,,,,2023-04-07_20h02.24.384,FaceAttractiveness,2022.2.5,142.17349145020663,
images\ LIP_CFD_WF_200_099_N.png,0,0,0,8,1,64,159,54,,,,,2023-04-07_20h02.24.384,FaceAttractiveness,2022.2.5,142.17349145020663,
images\ LCHEEK_CFD_LF_224_176_N.png,0,0,0,8,1,65,160,31,,,,,2023-04-07_20h02.24.384,FaceAttractiveness,2022.2.5,142.17349145020663,
images\ RCHEEK_CFD_AF_237_223_N.png,0,0,0,8,1,66,161,81,,,,,2023-04-07_20h02.24.384,FaceAttractiveness,2022.2.5,142.17349145020663,
images\ NASALTIP_CFD_AF_245_143_N.png,0,0,0,8,1,67,162,63,,,,,2023-04-07_20h02.24.384,FaceAttractiveness,2022.2.5,142.17349145020663,
images\FOREHEAD_CFD_WF_250_167_N.png,0,0,0,8,1,68,163,17,,,,,2023-04-07_20h02.24.384,FaceAttractiveness,2022.2.5,142.17349145020663,
images\ RCHEEK_CFD_BF_214_308_N.png,0,0,0,8,1,69,164,84,,,,,2023-04-07_20h02.24.384,FaceAttractiveness,2022.2.5,142.17349145020663,
images\ NASALTIP_CFD_WF_250_167_N.png,0,0,0,8,1,70,165,74,,,,,2023-04-07_20h02.24.384,FaceAttractiveness,2022.2.5,142.17349145020663,
"images\ NASALTIP_136_M_M_N_A.png
",0,0,0,8,1,71,166,60,,,,,2023-04-07_20h02.24.384,FaceAttractiveness,2022.2.5,142.17349145020663,
images\ RCHEEK_CFD_WF_200_099_N.png,0,0,0,8,1,72,167,92,,,,,2023-04-07_20h02.24.384,FaceAttractiveness,2022.2.5,142.17349145020663,
"images\ RCHEEK_CFD_WF_002_004_N.png
",0,0,0,8,1,73,168,91,,,,,2023-04-07_20h02.24.384,FaceAttractiveness,2022.2.5,142.17349145020663,
images\ RCHEEK_CFD_WF_250_167_N.png,0,0,0,8,1,74,169,93,,,,,2023-04-07_20h02.24.384,FaceAttractiveness,2022.2.5,142.17349145020663,
"images\ LCHEEK_136_M_M_N_A.png
",0,0,0,8,1,75,170,22,,,,,2023-04-07_20h02.24.384,FaceAttractiveness,2022.2.5,142.17349145020663,
images\FOREHEAD_CFD_BM_213_134_N.png,0,0,0,8,1,76,171,10,,,,,2023-04-07_20h02.24.384,FaceAttractiveness,2022.2.5,142.17349145020663,
"images\ LIP_CFD_AM_233_236_N.png
",0,0,0,8,1,77,172,45,,,,,2023-04-07_20h02.24.384,FaceAttractiveness,2022.2.5,142.17349145020663,
images\FOREHEAD_087_M_M_N_A.png,0,0,0,8,1,78,173,2,,,,,2023-04-07_20h02.24.384,FaceAttractiveness,2022.2.5,142.17349145020663,
images\ NASALTIP_006_M_F_N_A.png,0,0,0,8,1,79,174,57,,,,,2023-04-07_20h02.24.384,FaceAttractiveness,2022.2.5,142.17349145020663,
images\ NASALTIP_CFD_LM_203_026_N.png,0,0,0,8,1,80,175,71,,,,,2023-04-07_20h02.24.384,FaceAttractiveness,2022.2.5,142.17349145020663,
images\ RCHEEK_CFD_BM_213_134_N.png,0,0,0,8,1,81,176,86,,,,,2023-04-07_20h02.24.384,FaceAttractiveness,2022.2.5,142.17349145020663,
"images\ LIP_CFD_BM_234_172_N.png
",0,0,0,8,1,82,177,49,,,,,2023-04-07_20h02.24.384,FaceAttractiveness,2022.2.5,142.17349145020663,
images\ LIP_CFD_LM_201_057_N.png,0,0,0,8,1,83,178,51,,,,,2023-04-07_20h02.24.384,FaceAttractiveness,2022.2.5,142.17349145020663,
images\ NASALTIP_CFD_WF_200_099_N.png,0,0,0,8,1,84,179,73,,,,,2023-04-07_20h02.24.384,FaceAttractiveness,2022.2.5,142.17349145020663,
images\ RCHEEK_CFD_LF_224_176_N.png,0,0,0,8,1,85,180,88,,,,,2023-04-07_20h02.24.384,FaceAttractiveness,2022.2.5,142.17349145020663,
images\ RCHEEK_CFD_LM_201_057_N.png,0,0,0,8,1,86,181,89,,,,,2023-04-07_20h02.24.384,FaceAttractiveness,2022.2.5,142.17349145020663,
images\FOREHEAD_CFD_AM_233_236_N.png,0,0,0,8,1,87,182,7,,,,,2023-04-07_20h02.24.384,FaceAttractiveness,2022.2.5,142.17349145020663,
images\ LCHEEK_CFD_LM_203_026_N.png,0,0,0,8,1,88,183,33,,,,,2023-04-07_20h02.24.384,FaceAttractiveness,2022.2.5,142.17349145020663,
images\ LCHEEK_CFD_BF_224_002_N.png,0,0,0,8,1,89,184,28,,,,,2023-04-07_20h02.24.384,FaceAttractiveness,2022.2.5,142.17349145020663,
images\ RCHEEK_087_M_M_N_A.png,0,0,0,8,1,90,185,78,,,,,2023-04-07_20h02.24.384,FaceAttractiveness,2022.2.5,142.17349145020663,
images\ RCHEEK_CFD_AF_231_357_N.png,0,0,0,8,1,91,186,80,,,,,2023-04-07_20h02.24.384,FaceAttractiveness,2022.2.5,142.17349145020663,
images\ NASALTIP_CFD_LM_201_057_N.png,0,0,0,8,1,92,187,70,,,,,2023-04-07_20h02.24.384,FaceAttractiveness,2022.2.5,142.17349145020663,
images\ RCHEEK_CFD_WM_212_097_N.png,0,0,0,8,1,93,188,94,,,,,2023-04-07_20h02.24.384,FaceAttractiveness,2022.2.5,142.17349145020663,
images\ LIP_CFD_LF_224_176_N.png,0,0,0,8,1,94,189,50,,,,,2023-04-07_20h02.24.384,FaceAttractiveness,2022.2.5,142.17349145020663,
images\ NASALTIP_CFD_WM_212_097_N.png,0,0,0,8,2,0,190,75,,,,,2023-04-07_20h02.24.384,FaceAttractiveness,2022.2.5,142.17349145020663,
images\ LCHEEK_035_M_F_N_A.png,0,0,0,8,2,1,191,20,,,,,2023-04-07_20h02.24.384,FaceAttractiveness,2022.2.5,142.17349145020663,
images\ NASALTIP_CFD_BM_213_134_N.png,0,0,0,8,2,2,192,67,,,,,2023-04-07_20h02.24.384,FaceAttractiveness,2022.2.5,142.17349145020663,
images\ LCHEEK_CFD_WF_250_167_N.png,0,0,0,8,2,3,193,36,,,,,2023-04-07_20h02.24.384,FaceAttractiveness,2022.2.5,142.17349145020663,
images\ RCHEEK_CFD_WF_200_099_N.png,0,0,0,8,2,4,194,92,,,,,2023-04-07_20h02.24.384,FaceAttractiveness,2022.2.5,142.17349145020663,
images\ LCHEEK_CFD_WF_200_099_N.png,0,0,0,8,2,5,195,35,,,,,2023-04-07_20h02.24.384,FaceAttractiveness,2022.2.5,142.17349145020663,
images\ RCHEEK_035_M_F_N_A.png,0,0,0,8,2,6,196,77,,,,,2023-04-07_20h02.24.384,FaceAttractiveness,2022.2.5,142.17349145020663,
images\ LCHEEK_CFD_LM_203_026_N.png,0,0,0,8,2,7,197,33,,,,,2023-04-07_20h02.24.384,FaceAttractiveness,2022.2.5,142.17349145020663,
images\ LCHEEK_087_M_M_N_A.png,0,0,0,8,2,8,198,21,,,,,2023-04-07_20h02.24.384,FaceAttractiveness,2022.2.5,142.17349145020663,
"images\ LCHEEK_CFD_BM_234_172_N.png
",0,0,0,8,2,9,199,30,,,,,2023-04-07_20h02.24.384,FaceAttractiveness,2022.2.5,142.17349145020663,
"images\ RCHEEK_CFD_BM_234_172_N.png
",0,0,0,8,2,10,200,87,,,,,2023-04-07_20h02.24.384,FaceAttractiveness,2022.2.5,142.17349145020663,
images\ LCHEEK_CFD_BF_224_002_N.png,0,0,0,8,2,11,201,28,,,,,2023-04-07_20h02.24.384,FaceAttractiveness,2022.2.5,142.17349145020663,
images\FOREHEAD_CFD_BM_213_134_N.png,0,0,0,8,2,12,202,10,,,,,2023-04-07_20h02.24.384,FaceAttractiveness,2022.2.5,142.17349145020663,
images\FOREHEAD_CFD_WM_212_097_N.png,0,0,0,8,2,13,203,18,,,,,2023-04-07_20h02.24.384,FaceAttractiveness,2022.2.5,142.17349145020663,
images\FOREHEAD_CFD_LF_224_176_N.png,0,0,0,8,2,14,204,12,,,,,2023-04-07_20h02.24.384,FaceAttractiveness,2022.2.5,142.17349145020663,
images\ LIP_CFD_AF_245_143_N.png,0,0,0,8,2,15,205,44,,,,,2023-04-07_20h02.24.384,FaceAttractiveness,2022.2.5,142.17349145020663,
images\ LIP_CFD_LM_203_026_N.png,0,0,0,8,2,16,206,52,,,,,2023-04-07_20h02.24.384,FaceAttractiveness,2022.2.5,142.17349145020663,
images\ RCHEEK_CFD_BF_224_002_N.png,0,0,0,8,2,17,207,85,,,,,2023-04-07_20h02.24.384,FaceAttractiveness,2022.2.5,142.17349145020663,
images\FOREHEAD_CFD_LM_201_057_N.png,0,0,0,8,2,18,208,13,,,,,2023-04-07_20h02.24.384,FaceAttractiveness,2022.2.5,142.17349145020663,
images\ RCHEEK_087_M_M_N_A.png,0,0,0,8,2,19,209,78,,,,,2023-04-07_20h02.24.384,FaceAttractiveness,2022.2.5,142.17349145020663,
images\ RCHEEK_CFD_AF_231_357_N.png,0,0,0,8,2,20,210,80,,,,,2023-04-07_20h02.24.384,FaceAttractiveness,2022.2.5,142.17349145020663,
images\ LCHEEK_CFD_BF_214_308_N.png,0,0,0,8,2,21,211,27,,,,,2023-04-07_20h02.24.384,FaceAttractiveness,2022.2.5,142.17349145020663,
images\FOREHEAD_CFD_WF_250_167_N.png,0,0,0,8,2,22,212,17,,,,,2023-04-07_20h02.24.384,FaceAttractiveness,2022.2.5,142.17349145020663,
images\ NASALTIP_035_M_F_N_A.png,0,0,0,8,2,23,213,58,,,,,2023-04-07_20h02.24.384,FaceAttractiveness,2022.2.5,142.17349145020663,
images\ LIP_CFD_WF_200_099_N.png,0,0,0,8,2,24,214,54,,,,,2023-04-07_20h02.24.384,FaceAttractiveness,2022.2.5,142.17349145020663,
images\FOREHEAD_CFD_WF_200_099_N.png,0,0,0,8,2,25,215,16,,,,,2023-04-07_20h02.24.384,FaceAttractiveness,2022.2.5,142.17349145020663,
images\ RCHEEK_CFD_AF_245_143_N.png,0,0,0,8,2,26,216,82,,,,,2023-04-07_20h02.24.384,FaceAttractiveness,2022.2.5,142.17349145020663,
images\ LIP_035_M_F_N_A.png,0,0,0,8,2,27,217,39,,,,,2023-04-07_20h02.24.384,FaceAttractiveness,2022.2.5,142.17349145020663,
images\ LCHEEK_CFD_WM_212_097_N.png,0,0,0,8,2,28,218,37,,,,,2023-04-07_20h02.24.384,FaceAttractiveness,2022.2.5,142.17349145020663,
images\ RCHEEK_CFD_LF_224_176_N.png,0,0,0,8,2,29,219,88,,,,,2023-04-07_20h02.24.384,FaceAttractiveness,2022.2.5,142.17349145020663,
"images\ RCHEEK_CFD_WF_002_004_N.png
",0,0,0,8,2,30,220,91,,,,,2023-04-07_20h02.24.384,FaceAttractiveness,2022.2.5,142.17349145020663,
images\FOREHEAD_CFD_AF_231_357_N.png,0,0,0,8,2,31,221,4,,,,,2023-04-07_20h02.24.384,FaceAttractiveness,2022.2.5,142.17349145020663,
images\ RCHEEK_CFD_WF_250_167_N.png,0,0,0,8,2,32,222,93,,,,,2023-04-07_20h02.24.384,FaceAttractiveness,2022.2.5,142.17349145020663,
images\ RCHEEK_CFD_BM_213_134_N.png,0,0,0,8,2,33,223,86,,,,,2023-04-07_20h02.24.384,FaceAttractiveness,2022.2.5,142.17349145020663,
images\ NASALTIP_CFD_LF_224_176_N.png,0,0,0,8,2,34,224,69,,,,,2023-04-07_20h02.24.384,FaceAttractiveness,2022.2.5,142.17349145020663,
"images\ LIP_CFD_WF_002_004_N.png
",0,0,0,8,2,35,225,53,,,,,2023-04-07_20h02.24.384,FaceAttractiveness,2022.2.5,142.17349145020663,
images\ NASALTIP_CFD_BF_224_002_N.png,0,0,0,8,2,36,226,66,,,,,2023-04-07_20h02.24.384,FaceAttractiveness,2022.2.5,142.17349145020663,
images\ NASALTIP_CFD_LM_201_057_N.png,0,0,0,8,2,37,227,70,,,,,2023-04-07_20h02.24.384,FaceAttractiveness,2022.2.5,142.17349145020663,
"images\ NASALTIP_136_M_M_N_A.png
",0,0,0,8,2,38,228,60,,,,,2023-04-07_20h02.24.384,FaceAttractiveness,2022.2.5,142.17349145020663,
images\ RCHEEK_CFD_AF_237_223_N.png,0,0,0,8,2,39,229,81,,,,,2023-04-07_20h02.24.384,FaceAttractiveness,2022.2.5,142.17349145020663,
images\ LIP_CFD_BF_214_308_N.png,0,0,0,8,2,40,230,46,,,,,2023-04-07_20h02.24.384,FaceAttractiveness,2022.2.5,142.17349145020663,
images\ NASALTIP_CFD_BF_214_308_N.png,0,0,0,8,2,41,231,65,,,,,2023-04-07_20h02.24.384,FaceAttractiveness,2022.2.5,142.17349145020663,
"images\ NASALTIP_CFD_WF_002_004_N.png
",0,0,0,8,2,42,232,72,,,,,2023-04-07_20h02.24.384,FaceAttractiveness,2022.2.5,142.17349145020663,
images\FOREHEAD_136_M_M_N_A.png,0,0,0,8,2,43,233,3,,,,,2023-04-07_20h02.24.384,FaceAttractiveness,2022.2.5,142.17349145020663,
images\ NASALTIP_CFD_LM_203_026_N.png,0,0,0,8,2,44,234,71,,,,,2023-04-07_20h02.24.384,FaceAttractiveness,2022.2.5,142.17349145020663,
images\ LIP_CFD_BM_213_134_N.png,0,0,0,8,2,45,235,48,,,,,2023-04-07_20h02.24.384,FaceAttractiveness,2022.2.5,142.17349145020663,
images\ RCHEEK_CFD_LM_203_026_N.png,0,0,0,8,2,46,236,90,,,,,2023-04-07_20h02.24.384,FaceAttractiveness,2022.2.5,142.17349145020663,
images\ LCHEEK_CFD_AF_231_357_N.png,0,0,0,8,2,47,237,23,,,,,2023-04-07_20h02.24.384,FaceAttractiveness,2022.2.5,142.17349145020663,
images\ LIP_CFD_BF_224_002_N.png,0,0,0,8,2,48,238,47,,,,,2023-04-07_20h02.24.384,FaceAttractiveness,2022.2.5,142.17349145020663,
images\ LCHEEK_CFD_AF_237_223_N.png,0,0,0,8,2,49,239,24,,,,,2023-04-07_20h02.24.384,FaceAttractiveness,2022.2.5,142.17349145020663,
images\ LCHEEK_CFD_LM_201_057_N.png,0,0,0,8,2,50,240,32,,,,,2023-04-07_20h02.24.384,FaceAttractiveness,2022.2.5,142.17349145020663,
images\ RCHEEK_CFD_LM_201_057_N.png,0,0,0,8,2,51,241,89,,,,,2023-04-07_20h02.24.384,FaceAttractiveness,2022.2.5,142.17349145020663,
images\FOREHEAD_087_M_M_N_A.png,0,0,0,8,2,52,242,2,,,,,2023-04-07_20h02.24.384,FaceAttractiveness,2022.2.5,142.17349145020663,
images\ LIP_CFD_LM_201_057_N.png,0,0,0,8,2,53,243,51,,,,,2023-04-07_20h02.24.384,FaceAttractiveness,2022.2.5,142.17349145020663,
"images\ NASALTIP_CFD_BM_234_172_N.png
",0,0,0,8,2,54,244,68,,,,,2023-04-07_20h02.24.384,FaceAttractiveness,2022.2.5,142.17349145020663,
images\FOREHEAD_006_M_F_N_A.png,0,0,0,8,2,55,245,0,,,,,2023-04-07_20h02.24.384,FaceAttractiveness,2022.2.5,142.17349145020663,
images\ NASALTIP_006_M_F_N_A.png,0,0,0,8,2,56,246,57,,,,,2023-04-07_20h02.24.384,FaceAttractiveness,2022.2.5,142.17349145020663,
images\ LCHEEK_CFD_BM_213_134_N.png,0,0,0,8,2,57,247,29,,,,,2023-04-07_20h02.24.384,FaceAttractiveness,2022.2.5,142.17349145020663,
"images\ LCHEEK_136_M_M_N_A.png
",0,0,0,8,2,58,248,22,,,,,2023-04-07_20h02.24.384,FaceAttractiveness,2022.2.5,142.17349145020663,
"images\ LCHEEK_CFD_WF_002_004_N.png
",0,0,0,8,2,59,249,34,,,,,2023-04-07_20h02.24.384,FaceAttractiveness,2022.2.5,142.17349145020663,
images\ LIP_CFD_WF_250_167_N.png,0,0,0,8,2,60,250,55,,,,,2023-04-07_20h02.24.384,FaceAttractiveness,2022.2.5,142.17349145020663,
images\ RCHEEK_006_M_F_N_A.png,0,0,0,8,2,61,251,76,,,,,2023-04-07_20h02.24.384,FaceAttractiveness,2022.2.5,142.17349145020663,
images\ NASALTIP_CFD_WF_200_099_N.png,0,0,0,8,2,62,252,73,,,,,2023-04-07_20h02.24.384,FaceAttractiveness,2022.2.5,142.17349145020663,
images\ RCHEEK_CFD_BF_214_308_N.png,0,0,0,8,2,63,253,84,,,,,2023-04-07_20h02.24.384,FaceAttractiveness,2022.2.5,142.17349145020663,
images\ NASALTIP_087_M_M_N_A.png,0,0,0,8,2,64,254,59,,,,,2023-04-07_20h02.24.384,FaceAttractiveness,2022.2.5,142.17349145020663,
images\ NASALTIP_CFD_AF_231_357_N.png,0,0,0,8,2,65,255,61,,,,,2023-04-07_20h02.24.384,FaceAttractiveness,2022.2.5,142.17349145020663,
images\FOREHEAD_CFD_LM_203_026_N.png,0,0,0,8,2,66,256,14,,,,,2023-04-07_20h02.24.384,FaceAttractiveness,2022.2.5,142.17349145020663,
images\ RCHEEK_CFD_WM_212_097_N.png,0,0,0,8,2,67,257,94,,,,,2023-04-07_20h02.24.384,FaceAttractiveness,2022.2.5,142.17349145020663,
images\ LIP_CFD_AF_237_223_N.png,0,0,0,8,2,68,258,43,,,,,2023-04-07_20h02.24.384,FaceAttractiveness,2022.2.5,142.17349145020663,
images\FOREHEAD_CFD_BM_234_172_N.png,0,0,0,8,2,69,259,11,,,,,2023-04-07_20h02.24.384,FaceAttractiveness,2022.2.5,142.17349145020663,
images\ LIP_CFD_WM_212_097_N.png,0,0,0,8,2,70,260,56,,,,,2023-04-07_20h02.24.384,FaceAttractiveness,2022.2.5,142.17349145020663,
"images\ RCHEEK_136_M_M_N_A.png
",0,0,0,8,2,71,261,79,,,,,2023-04-07_20h02.24.384,FaceAttractiveness,2022.2.5,142.17349145020663,
images\ LIP_CFD_LF_224_176_N.png,0,0,0,8,2,72,262,50,,,,,2023-04-07_20h02.24.384,FaceAttractiveness,2022.2.5,142.17349145020663,
"images\ LIP_CFD_BM_234_172_N.png
",0,0,0,8,2,73,263,49,,,,,2023-04-07_20h02.24.384,FaceAttractiveness,2022.2.5,142.17349145020663,
images\ LCHEEK_006_M_F_N_A.png,0,0,0,8,2,74,264,19,,,,,2023-04-07_20h02.24.384,FaceAttractiveness,2022.2.5,142.17349145020663,
"images\ LIP_CFD_AM_233_236_N.png
",0,0,0,8,2,75,265,45,,,,,2023-04-07_20h02.24.384,FaceAttractiveness,2022.2.5,142.17349145020663,
images\FOREHEAD_CFD_AF_245_143_N.png,0,0,0,8,2,76,266,6,,,,,2023-04-07_20h02.24.384,FaceAttractiveness,2022.2.5,142.17349145020663,
images\ NASALTIP_CFD_AF_245_143_N.png,0,0,0,8,2,77,267,63,,,,,2023-04-07_20h02.24.384,FaceAttractiveness,2022.2.5,142.17349145020663,
images\ LCHEEK_CFD_AF_245_143_N.png,0,0,0,8,2,78,268,25,,,,,2023-04-07_20h02.24.384,FaceAttractiveness,2022.2.5,142.17349145020663,
"images\ NASALTIP_CFD_AM_233_236_N.png
",0,0,0,8,2,79,269,64,,,,,2023-04-07_20h02.24.384,FaceAttractiveness,2022.2.5,142.17349145020663,
images\ NASALTIP_CFD_WF_250_167_N.png,0,0,0,8,2,80,270,74,,,,,2023-04-07_20h02.24.384,FaceAttractiveness,2022.2.5,142.17349145020663,
images\FOREHEAD_035_M_F_N_A.png,0,0,0,8,2,81,271,1,,,,,2023-04-07_20h02.24.384,FaceAttractiveness,2022.2.5,142.17349145020663,
"images\ RCHEEK_CFD_AM_233_236_N.png
",0,0,0,8,2,82,272,83,,,,,2023-04-07_20h02.24.384,FaceAttractiveness,2022.2.5,142.17349145020663,
images\ LIP_006_M_F_N_A.png,0,0,0,8,2,83,273,38,,,,,2023-04-07_20h02.24.384,FaceAttractiveness,2022.2.5,142.17349145020663,
images\FOREHEAD_CFD_WF_002_004_N.png,0,0,0,8,2,84,274,15,,,,,2023-04-07_20h02.24.384,FaceAttractiveness,2022.2.5,142.17349145020663,
images\FOREHEAD_CFD_BF_214_308_N.png,0,0,0,8,2,85,275,8,,,,,2023-04-07_20h02.24.384,FaceAttractiveness,2022.2.5,142.17349145020663,
images\ LIP_087_M_M_N_A.png,0,0,0,8,2,86,276,40,,,,,2023-04-07_20h02.24.384,FaceAttractiveness,2022.2.5,142.17349145020663,
images\ LCHEEK_CFD_LF_224_176_N.png,0,0,0,8,2,87,277,31,,,,,2023-04-07_20h02.24.384,FaceAttractiveness,2022.2.5,142.17349145020663,
images\FOREHEAD_CFD_AF_237_223_N.png,0,0,0,8,2,88,278,5,,,,,2023-04-07_20h02.24.384,FaceAttractiveness,2022.2.5,142.17349145020663,
"images\ LCHEEK_CFD_AM_233_236_N.png
",0,0,0,8,2,89,279,26,,,,,2023-04-07_20h02.24.384,FaceAttractiveness,2022.2.5,142.17349145020663,
images\ NASALTIP_CFD_AF_237_223_N.png,0,0,0,8,2,90,280,62,,,,,2023-04-07_20h02.24.384,FaceAttractiveness,2022.2.5,142.17349145020663,
images\ LIP_CFD_AF_231_357_N.png,0,0,0,8,2,91,281,42,,,,,2023-04-07_20h02.24.384,FaceAttractiveness,2022.2.5,142.17349145020663,
"images\ LIP_136_M_M_N_A.png
",0,0,0,8,2,92,282,41,,,,,2023-04-07_20h02.24.384,FaceAttractiveness,2022.2.5,142.17349145020663,
images\FOREHEAD_CFD_BF_224_002_N.png,0,0,0,8,2,93,283,9,,,,,2023-04-07_20h02.24.384,FaceAttractiveness,2022.2.5,142.17349145020663,
images\FOREHEAD_CFD_AM_233_236_N.png,0,0,0,8,2,94,284,7,,,,,2023-04-07_20h02.24.384,FaceAttractiveness,2022.2.5,142.17349145020663,
images\FOREHEAD_CFD_WF_250_167_N.png,0,0,0,8,3,0,285,17,,,,,2023-04-07_20h02.24.384,FaceAttractiveness,2022.2.5,142.17349145020663,
images\ LCHEEK_CFD_LM_201_057_N.png,0,0,0,8,3,1,286,32,,,,,2023-04-07_20h02.24.384,FaceAttractiveness,2022.2.5,142.17349145020663,
images\FOREHEAD_006_M_F_N_A.png,0,0,0,8,3,2,287,0,,,,,2023-04-07_20h02.24.384,FaceAttractiveness,2022.2.5,142.17349145020663,
images\ LCHEEK_CFD_AF_231_357_N.png,0,0,0,8,3,3,288,23,,,,,2023-04-07_20h02.24.384,FaceAttractiveness,2022.2.5,142.17349145020663,
images\FOREHEAD_CFD_AF_245_143_N.png,0,0,0,8,3,4,289,6,,,,,2023-04-07_20h02.24.384,FaceAttractiveness,2022.2.5,142.17349145020663,
images\ LCHEEK_CFD_WM_212_097_N.png,0,0,0,8,3,5,290,37,,,,,2023-04-07_20h02.24.384,FaceAttractiveness,2022.2.5,142.17349145020663,
images\ LIP_CFD_LM_203_026_N.png,0,0,0,8,3,6,291,52,,,,,2023-04-07_20h02.24.384,FaceAttractiveness,2022.2.5,142.17349145020663,
images\ RCHEEK_CFD_AF_245_143_N.png,0,0,0,8,3,7,292,82,,,,,2023-04-07_20h02.24.384,FaceAttractiveness,2022.2.5,142.17349145020663,
images\ LCHEEK_CFD_AF_245_143_N.png,0,0,0,8,3,8,293,25,,,,,2023-04-07_20h02.24.384,FaceAttractiveness,2022.2.5,142.17349145020663,
images\ RCHEEK_CFD_BM_213_134_N.png,0,0,0,8,3,9,294,86,,,,,2023-04-07_20h02.24.384,FaceAttractiveness,2022.2.5,142.17349145020663,
images\ RCHEEK_CFD_LM_203_026_N.png,0,0,0,8,3,10,295,90,,,,,2023-04-07_20h02.24.384,FaceAttractiveness,2022.2.5,142.17349145020663,
images\ LIP_CFD_LM_201_057_N.png,0,0,0,8,3,11,296,51,,,,,2023-04-07_20h02.24.384,FaceAttractiveness,2022.2.5,142.17349145020663,
images\ LCHEEK_CFD_BF_224_002_N.png,0,0,0,8,3,12,297,28,,,,,2023-04-07_20h02.24.384,FaceAttractiveness,2022.2.5,142.17349145020663,
images\ LIP_CFD_BM_213_134_N.png,0,0,0,8,3,13,298,48,,,,,2023-04-07_20h02.24.384,FaceAttractiveness,2022.2.5,142.17349145020663,
"images\ NASALTIP_CFD_AM_233_236_N.png
",0,0,0,8,3,14,299,64,,,,,2023-04-07_20h02.24.384,FaceAttractiveness,2022.2.5,142.17349145020663,
images\ LIP_CFD_LF_224_176_N.png,0,0,0,8,3,15,300,50,,,,,2023-04-07_20h02.24.384,FaceAttractiveness,2022.2.5,142.17349145020663,
images\ LIP_087_M_M_N_A.png,0,0,0,8,3,16,301,40,,,,,2023-04-07_20h02.24.384,FaceAttractiveness,2022.2.5,142.17349145020663,
"images\ NASALTIP_CFD_BM_234_172_N.png
",0,0,0,8,3,17,302,68,,,,,2023-04-07_20h02.24.384,FaceAttractiveness,2022.2.5,142.17349145020663,
images\ RCHEEK_CFD_LF_224_176_N.png,0,0,0,8,3,18,303,88,,,,,2023-04-07_20h02.24.384,FaceAttractiveness,2022.2.5,142.17349145020663,
images\FOREHEAD_087_M_M_N_A.png,0,0,0,8,3,19,304,2,,,,,2023-04-07_20h02.24.384,FaceAttractiveness,2022.2.5,142.17349145020663,
images\ NASALTIP_CFD_BF_214_308_N.png,0,0,0,8,3,20,305,65,,,,,2023-04-07_20h02.24.384,FaceAttractiveness,2022.2.5,142.17349145020663,
images\FOREHEAD_CFD_LM_201_057_N.png,0,0,0,8,3,21,306,13,,,,,2023-04-07_20h02.24.384,FaceAttractiveness,2022.2.5,142.17349145020663,
images\ LCHEEK_CFD_AF_237_223_N.png,0,0,0,8,3,22,307,24,,,,,2023-04-07_20h02.24.384,FaceAttractiveness,2022.2.5,142.17349145020663,
images\ LCHEEK_CFD_WF_200_099_N.png,0,0,0,8,3,23,308,35,,,,,2023-04-07_20h02.24.384,FaceAttractiveness,2022.2.5,142.17349145020663,
images\ LCHEEK_035_M_F_N_A.png,0,0,0,8,3,24,309,20,,,,,2023-04-07_20h02.24.384,FaceAttractiveness,2022.2.5,142.17349145020663,
images\ RCHEEK_035_M_F_N_A.png,0,0,0,8,3,25,310,77,,,,,2023-04-07_20h02.24.384,FaceAttractiveness,2022.2.5,142.17349145020663,
images\FOREHEAD_CFD_BF_224_002_N.png,0,0,0,8,3,26,311,9,,,,,2023-04-07_20h02.24.384,FaceAttractiveness,2022.2.5,142.17349145020663,
images\FOREHEAD_CFD_BM_234_172_N.png,0,0,0,8,3,27,312,11,,,,,2023-04-07_20h02.24.384,FaceAttractiveness,2022.2.5,142.17349145020663,
images\ LCHEEK_006_M_F_N_A.png,0,0,0,8,3,28,313,19,,,,,2023-04-07_20h02.24.384,FaceAttractiveness,2022.2.5,142.17349145020663,
"images\ LCHEEK_136_M_M_N_A.png
",0,0,0,8,3,29,314,22,,,,,2023-04-07_20h02.24.384,FaceAttractiveness,2022.2.5,142.17349145020663,
images\ LCHEEK_CFD_LF_224_176_N.png,0,0,0,8,3,30,315,31,,,,,2023-04-07_20h02.24.384,FaceAttractiveness,2022.2.5,142.17349145020663,
images\ NASALTIP_CFD_BM_213_134_N.png,0,0,0,8,3,31,316,67,,,,,2023-04-07_20h02.24.384,FaceAttractiveness,2022.2.5,142.17349145020663,
images\FOREHEAD_136_M_M_N_A.png,0,0,0,8,3,32,317,3,,,,,2023-04-07_20h02.24.384,FaceAttractiveness,2022.2.5,142.17349145020663,
images\ NASALTIP_CFD_LM_203_026_N.png,0,0,0,8,3,33,318,71,,,,,2023-04-07_20h02.24.384,FaceAttractiveness,2022.2.5,142.17349145020663,
images\ NASALTIP_CFD_AF_231_357_N.png,0,0,0,8,3,34,319,61,,,,,2023-04-07_20h02.24.384,FaceAttractiveness,2022.2.5,142.17349145020663,
images\FOREHEAD_CFD_WM_212_097_N.png,0,0,0,8,3,35,320,18,,,,,2023-04-07_20h02.24.384,FaceAttractiveness,2022.2.5,142.17349145020663,
images\ RCHEEK_CFD_WM_212_097_N.png,0,0,0,8,3,36,321,94,,,,,2023-04-07_20h02.24.384,FaceAttractiveness,2022.2.5,142.17349145020663,
images\ LIP_CFD_AF_231_357_N.png,0,0,0,8,3,37,322,42,,,,,2023-04-07_20h02.24.384,FaceAttractiveness,2022.2.5,142.17349145020663,
images\FOREHEAD_CFD_AF_237_223_N.png,0,0,0,8,3,38,323,5,,,,,2023-04-07_20h02.24.384,FaceAttractiveness,2022.2.5,142.17349145020663,
images\ RCHEEK_CFD_BF_214_308_N.png,0,0,0,8,3,39,324,84,,,,,2023-04-07_20h02.24.384,FaceAttractiveness,2022.2.5,142.17349145020663,
images\ LIP_006_M_F_N_A.png,0,0,0,8,3,40,325,38,,,,,2023-04-07_20h02.24.384,FaceAttractiveness,2022.2.5,142.17349145020663,
"images\ LIP_136_M_M_N_A.png
",0,0,0,8,3,41,326,41,,,,,2023-04-07_20h02.24.384,FaceAttractiveness,2022.2.5,142.17349145020663,
images\ LIP_CFD_BF_214_308_N.png,0,0,0,8,3,42,327,46,,,,,2023-04-07_20h02.24.384,FaceAttractiveness,2022.2.5,142.17349145020663,
"images\ LCHEEK_CFD_AM_233_236_N.png
",0,0,0,8,3,43,328,26,,,,,2023-04-07_20h02.24.384,FaceAttractiveness,2022.2.5,142.17349145020663,
images\ LIP_CFD_AF_245_143_N.png,0,0,0,8,3,44,329,44,,,,,2023-04-07_20h02.24.384,FaceAttractiveness,2022.2.5,142.17349145020663,
images\ RCHEEK_CFD_LM_201_057_N.png,0,0,0,8,3,45,330,89,,,,,2023-04-07_20h02.24.384,FaceAttractiveness,2022.2.5,142.17349145020663,
images\ LCHEEK_CFD_BM_213_134_N.png,0,0,0,8,3,46,331,29,,,,,2023-04-07_20h02.24.384,FaceAttractiveness,2022.2.5,142.17349145020663,
"images\ LCHEEK_CFD_BM_234_172_N.png
",0,0,0,8,3,47,332,30,,,,,2023-04-07_20h02.24.384,FaceAttractiveness,2022.2.5,142.17349145020663,
images\FOREHEAD_CFD_AM_233_236_N.png,0,0,0,8,3,48,333,7,,,,,2023-04-07_20h02.24.384,FaceAttractiveness,2022.2.5,142.17349145020663,
images\ NASALTIP_CFD_WM_212_097_N.png,0,0,0,8,3,49,334,75,,,,,2023-04-07_20h02.24.384,FaceAttractiveness,2022.2.5,142.17349145020663,
images\FOREHEAD_CFD_AF_231_357_N.png,0,0,0,8,3,50,335,4,,,,,2023-04-07_20h02.24.384,FaceAttractiveness,2022.2.5,142.17349145020663,
images\ NASALTIP_CFD_AF_237_223_N.png,0,0,0,8,3,51,336,62,,,,,2023-04-07_20h02.24.384,FaceAttractiveness,2022.2.5,142.17349145020663,
"images\ LIP_CFD_BM_234_172_N.png
",0,0,0,8,3,52,337,49,,,,,2023-04-07_20h02.24.384,FaceAttractiveness,2022.2.5,142.17349145020663,
images\ NASALTIP_CFD_WF_250_167_N.png,0,0,0,8,3,53,338,74,,,,,2023-04-07_20h02.24.384,FaceAttractiveness,2022.2.5,142.17349145020663,
images\ RCHEEK_006_M_F_N_A.png,0,0,0,8,3,54,339,76,,,,,2023-04-07_20h02.24.384,FaceAttractiveness,2022.2.5,142.17349145020663,
"images\ NASALTIP_136_M_M_N_A.png
",0,0,0,8,3,55,340,60,,,,,2023-04-07_20h02.24.384,FaceAttractiveness,2022.2.5,142.17349145020663,
images\ NASALTIP_006_M_F_N_A.png,0,0,0,8,3,56,341,57,,,,,2023-04-07_20h02.24.384,FaceAttractiveness,2022.2.5,142.17349145020663,
images\FOREHEAD_CFD_BF_214_308_N.png,0,0,0,8,3,57,342,8,,,,,2023-04-07_20h02.24.384,FaceAttractiveness,2022.2.5,142.17349145020663,
images\ RCHEEK_087_M_M_N_A.png,0,0,0,8,3,58,343,78,,,,,2023-04-07_20h02.24.384,FaceAttractiveness,2022.2.5,142.17349145020663,
images\FOREHEAD_CFD_BM_213_134_N.png,0,0,0,8,3,59,344,10,,,,,2023-04-07_20h02.24.384,FaceAttractiveness,2022.2.5,142.17349145020663,
images\ NASALTIP_035_M_F_N_A.png,0,0,0,8,3,60,345,58,,,,,2023-04-07_20h02.24.384,FaceAttractiveness,2022.2.5,142.17349145020663,
images\ NASALTIP_087_M_M_N_A.png,0,0,0,8,3,61,346,59,,,,,2023-04-07_20h02.24.384,FaceAttractiveness,2022.2.5,142.17349145020663,
"images\ RCHEEK_CFD_WF_002_004_N.png
",0,0,0,8,3,62,347,91,,,,,2023-04-07_20h02.24.384,FaceAttractiveness,2022.2.5,142.17349145020663,
"images\ RCHEEK_136_M_M_N_A.png
",0,0,0,8,3,63,348,79,,,,,2023-04-07_20h02.24.384,FaceAttractiveness,2022.2.5,142.17349145020663,
images\ RCHEEK_CFD_WF_250_167_N.png,0,0,0,8,3,64,349,93,,,,,2023-04-07_20h02.24.384,FaceAttractiveness,2022.2.5,142.17349145020663,
images\ NASALTIP_CFD_BF_224_002_N.png,0,0,0,8,3,65,350,66,,,,,2023-04-07_20h02.24.384,FaceAttractiveness,2022.2.5,142.17349145020663,
images\ LCHEEK_087_M_M_N_A.png,0,0,0,8,3,66,351,21,,,,,2023-04-07_20h02.24.384,FaceAttractiveness,2022.2.5,142.17349145020663,
"images\ LIP_CFD_AM_233_236_N.png
",0,0,0,8,3,67,352,45,,,,,2023-04-07_20h02.24.384,FaceAttractiveness,2022.2.5,142.17349145020663,
"images\ LIP_CFD_WF_002_004_N.png
",0,0,0,8,3,68,353,53,,,,,2023-04-07_20h02.24.384,FaceAttractiveness,2022.2.5,142.17349145020663,
"images\ LCHEEK_CFD_WF_002_004_N.png
",0,0,0,8,3,69,354,34,,,,,2023-04-07_20h02.24.384,FaceAttractiveness,2022.2.5,142.17349145020663,
"images\ RCHEEK_CFD_AM_233_236_N.png
",0,0,0,8,3,70,355,83,,,,,2023-04-07_20h02.24.384,FaceAttractiveness,2022.2.5,142.17349145020663,
images\FOREHEAD_035_M_F_N_A.png,0,0,0,8,3,71,356,1,,,,,2023-04-07_20h02.24.384,FaceAttractiveness,2022.2.5,142.17349145020663,
images\ LCHEEK_CFD_LM_203_026_N.png,0,0,0,8,3,72,357,33,,,,,2023-04-07_20h02.24.384,FaceAttractiveness,2022.2.5,142.17349145020663,
images\ NASALTIP_CFD_WF_200_099_N.png,0,0,0,8,3,73,358,73,,,,,2023-04-07_20h02.24.384,FaceAttractiveness,2022.2.5,142.17349145020663,
images\FOREHEAD_CFD_LM_203_026_N.png,0,0,0,8,3,74,359,14,,,,,2023-04-07_20h02.24.384,FaceAttractiveness,2022.2.5,142.17349145020663,
images\FOREHEAD_CFD_WF_200_099_N.png,0,0,0,8,3,75,360,16,,,,,2023-04-07_20h02.24.384,FaceAttractiveness,2022.2.5,142.17349145020663,
images\ LCHEEK_CFD_BF_214_308_N.png,0,0,0,8,3,76,361,27,,,,,2023-04-07_20h02.24.384,FaceAttractiveness,2022.2.5,142.17349145020663,
images\ RCHEEK_CFD_AF_231_357_N.png,0,0,0,8,3,77,362,80,,,,,2023-04-07_20h02.24.384,FaceAttractiveness,2022.2.5,142.17349145020663,
"images\ RCHEEK_CFD_BM_234_172_N.png
",0,0,0,8,3,78,363,87,,,,,2023-04-07_20h02.24.384,FaceAttractiveness,2022.2.5,142.17349145020663,
images\FOREHEAD_CFD_LF_224_176_N.png,0,0,0,8,3,79,364,12,,,,,2023-04-07_20h02.24.384,FaceAttractiveness,2022.2.5,142.17349145020663,
images\ LCHEEK_CFD_WF_250_167_N.png,0,0,0,8,3,80,365,36,,,,,2023-04-07_20h02.24.384,FaceAttractiveness,2022.2.5,142.17349145020663,
images\ LIP_035_M_F_N_A.png,0,0,0,8,3,81,366,39,,,,,2023-04-07_20h02.24.384,FaceAttractiveness,2022.2.5,142.17349145020663,
images\FOREHEAD_CFD_WF_002_004_N.png,0,0,0,8,3,82,367,15,,,,,2023-04-07_20h02.24.384,FaceAttractiveness,2022.2.5,142.17349145020663,
images\ LIP_CFD_WF_200_099_N.png,0,0,0,8,3,83,368,54,,,,,2023-04-07_20h02.24.384,FaceAttractiveness,2022.2.5,142.17349145020663,
images\ NASALTIP_CFD_LF_224_176_N.png,0,0,0,8,3,84,369,69,,,,,2023-04-07_20h02.24.384,FaceAttractiveness,2022.2.5,142.17349145020663,
images\ RCHEEK_CFD_AF_237_223_N.png,0,0,0,8,3,85,370,81,,,,,2023-04-07_20h02.24.384,FaceAttractiveness,2022.2.5,142.17349145020663,
"images\ NASALTIP_CFD_WF_002_004_N.png
",0,0,0,8,3,86,371,72,,,,,2023-04-07_20h02.24.384,FaceAttractiveness,2022.2.5,142.17349145020663,
images\ RCHEEK_CFD_WF_200_099_N.png,0,0,0,8,3,87,372,92,,,,,2023-04-07_20h02.24.384,FaceAttractiveness,2022.2.5,142.17349145020663,
images\ LIP_CFD_AF_237_223_N.png,0,0,0,8,3,88,373,43,,,,,2023-04-07_20h02.24.384,FaceAttractiveness,2022.2.5,142.17349145020663,
images\ LIP_CFD_WF_250_167_N.png,0,0,0,8,3,89,374,55,,,,,2023-04-07_20h02.24.384,FaceAttractiveness,2022.2.5,142.17349145020663,
images\ LIP_CFD_BF_224_002_N.png,0,0,0,8,3,90,375,47,,,,,2023-04-07_20h02.24.384,FaceAttractiveness,2022.2.5,142.17349145020663,
images\ LIP_CFD_WM_212_097_N.png,0,0,0,8,3,91,376,56,,,,,2023-04-07_20h02.24.384,FaceAttractiveness,2022.2.5,142.17349145020663,
images\ NASALTIP_CFD_AF_245_143_N.png,0,0,0,8,3,92,377,63,,,,,2023-04-07_20h02.24.384,FaceAttractiveness,2022.2.5,142.17349145020663,
images\ NASALTIP_CFD_LM_201_057_N.png,0,0,0,8,3,93,378,70,,,,,2023-04-07_20h02.24.384,FaceAttractiveness,2022.2.5,142.17349145020663,
images\ RCHEEK_CFD_BF_224_002_N.png,0,0,0,8,3,94,379,85,,,,,2023-04-07_20h02.24.384,FaceAttractiveness,2022.2.5,142.17349145020663,
images\ LIP_006_M_F_N_A.png,0,0,0,8,4,0,380,38,,,,,2023-04-07_20h02.24.384,FaceAttractiveness,2022.2.5,142.17349145020663,
images\FOREHEAD_CFD_AF_245_143_N.png,0,0,0,8,4,1,381,6,,,,,2023-04-07_20h02.24.384,FaceAttractiveness,2022.2.5,142.17349145020663,
images\ RCHEEK_CFD_AF_231_357_N.png,0,0,0,8,4,2,382,80,,,,,2023-04-07_20h02.24.384,FaceAttractiveness,2022.2.5,142.17349145020663,
images\ LIP_CFD_LF_224_176_N.png,0,0,0,8,4,3,383,50,,,,,2023-04-07_20h02.24.384,FaceAttractiveness,2022.2.5,142.17349145020663,
images\ LIP_CFD_WM_212_097_N.png,0,0,0,8,4,4,384,56,,,,,2023-04-07_20h02.24.384,FaceAttractiveness,2022.2.5,142.17349145020663,
images\ LCHEEK_CFD_AF_231_357_N.png,0,0,0,8,4,5,385,23,,,,,2023-04-07_20h02.24.384,FaceAttractiveness,2022.2.5,142.17349145020663,
images\ NASALTIP_CFD_BF_214_308_N.png,0,0,0,8,4,6,386,65,,,,,2023-04-07_20h02.24.384,FaceAttractiveness,2022.2.5,142.17349145020663,
images\ LCHEEK_CFD_BM_213_134_N.png,0,0,0,8,4,7,387,29,,,,,2023-04-07_20h02.24.384,FaceAttractiveness,2022.2.5,142.17349145020663,
images\ LIP_CFD_LM_201_057_N.png,0,0,0,8,4,8,388,51,,,,,2023-04-07_20h02.24.384,FaceAttractiveness,2022.2.5,142.17349145020663,
images\ NASALTIP_CFD_WM_212_097_N.png,0,0,0,8,4,9,389,75,,,,,2023-04-07_20h02.24.384,FaceAttractiveness,2022.2.5,142.17349145020663,
"images\ LIP_CFD_BM_234_172_N.png
",0,0,0,8,4,10,390,49,,,,,2023-04-07_20h02.24.384,FaceAttractiveness,2022.2.5,142.17349145020663,
images\FOREHEAD_CFD_WF_002_004_N.png,0,0,0,8,4,11,391,15,,,,,2023-04-07_20h02.24.384,FaceAttractiveness,2022.2.5,142.17349145020663,
images\ LCHEEK_006_M_F_N_A.png,0,0,0,8,4,12,392,19,,,,,2023-04-07_20h02.24.384,FaceAttractiveness,2022.2.5,142.17349145020663,
images\ LIP_CFD_BF_224_002_N.png,0,0,0,8,4,13,393,47,,,,,2023-04-07_20h02.24.384,FaceAttractiveness,2022.2.5,142.17349145020663,
images\ LIP_CFD_BF_214_308_N.png,0,0,0,8,4,14,394,46,,,,,2023-04-07_20h02.24.384,FaceAttractiveness,2022.2.5,142.17349145020663,
"images\ LCHEEK_CFD_WF_002_004_N.png
",0,0,0,8,4,15,395,34,,,,,2023-04-07_20h02.24.384,FaceAttractiveness,2022.2.5,142.17349145020663,
images\ LIP_CFD_AF_231_357_N.png,0,0,0,8,4,16,396,42,,,,,2023-04-07_20h02.24.384,FaceAttractiveness,2022.2.5,142.17349145020663,
images\ NASALTIP_006_M_F_N_A.png,0,0,0,8,4,17,397,57,,,,,2023-04-07_20h02.24.384,FaceAttractiveness,2022.2.5,142.17349145020663,
images\ RCHEEK_CFD_WM_212_097_N.png,0,0,0,8,4,18,398,94,,,,,2023-04-07_20h02.24.384,FaceAttractiveness,2022.2.5,142.17349145020663,
images\ LIP_035_M_F_N_A.png,0,0,0,8,4,19,399,39,,,,,2023-04-07_20h02.24.384,FaceAttractiveness,2022.2.5,142.17349145020663,
"images\ NASALTIP_136_M_M_N_A.png
",0,0,0,8,4,20,400,60,,,,,2023-04-07_20h02.24.384,FaceAttractiveness,2022.2.5,142.17349145020663,
"images\ LIP_136_M_M_N_A.png
",0,0,0,8,4,21,401,41,,,,,2023-04-07_20h02.24.384,FaceAttractiveness,2022.2.5,142.17349145020663,
images\ RCHEEK_CFD_BF_214_308_N.png,0,0,0,8,4,22,402,84,,,,,2023-04-07_20h02.24.384,FaceAttractiveness,2022.2.5,142.17349145020663,
images\ RCHEEK_035_M_F_N_A.png,0,0,0,8,4,23,403,77,,,,,2023-04-07_20h02.24.384,FaceAttractiveness,2022.2.5,142.17349145020663,
images\ NASALTIP_CFD_LF_224_176_N.png,0,0,0,8,4,24,404,69,,,,,2023-04-07_20h02.24.384,FaceAttractiveness,2022.2.5,142.17349145020663,
"images\ LIP_CFD_AM_233_236_N.png
",0,0,0,8,4,25,405,45,,,,,2023-04-07_20h02.24.384,FaceAttractiveness,2022.2.5,142.17349145020663,
"images\ LCHEEK_CFD_BM_234_172_N.png
",0,0,0,8,4,26,406,30,,,,,2023-04-07_20h02.24.384,FaceAttractiveness,2022.2.5,142.17349145020663,
images\FOREHEAD_136_M_M_N_A.png,0,0,0,8,4,27,407,3,,,,,2023-04-07_20h02.24.384,FaceAttractiveness,2022.2.5,142.17349145020663,
images\FOREHEAD_CFD_LM_203_026_N.png,0,0,0,8,4,28,408,14,,,,,2023-04-07_20h02.24.384,FaceAttractiveness,2022.2.5,142.17349145020663,
images\ LCHEEK_CFD_BF_214_308_N.png,0,0,0,8,4,29,409,27,,,,,2023-04-07_20h02.24.384,FaceAttractiveness,2022.2.5,142.17349145020663,
"images\ NASALTIP_CFD_AM_233_236_N.png
",0,0,0,8,4,30,410,64,,,,,2023-04-07_20h02.24.384,FaceAttractiveness,2022.2.5,142.17349145020663,
"images\ RCHEEK_CFD_AM_233_236_N.png
",0,0,0,8,4,31,411,83,,,,,2023-04-07_20h02.24.384,FaceAttractiveness,2022.2.5,142.17349145020663,
images\ LCHEEK_CFD_AF_237_223_N.png,0,0,0,8,4,32,412,24,,,,,2023-04-07_20h02.24.384,FaceAttractiveness,2022.2.5,142.17349145020663,
images\FOREHEAD_CFD_WF_200_099_N.png,0,0,0,8,4,33,413,16,,,,,2023-04-07_20h02.24.384,FaceAttractiveness,2022.2.5,142.17349145020663,
images\FOREHEAD_CFD_WM_212_097_N.png,0,0,0,8,4,34,414,18,,,,,2023-04-07_20h02.24.384,FaceAttractiveness,2022.2.5,142.17349145020663,
images\ NASALTIP_CFD_WF_250_167_N.png,0,0,0,8,4,35,415,74,,,,,2023-04-07_20h02.24.384,FaceAttractiveness,2022.2.5,142.17349145020663,
images\ NASALTIP_CFD_LM_201_057_N.png,0,0,0,8,4,36,416,70,,,,,2023-04-07_20h02.24.384,FaceAttractiveness,2022.2.5,142.17349145020663,
images\ RCHEEK_CFD_LF_224_176_N.png,0,0,0,8,4,37,417,88,,,,,2023-04-07_20h02.24.384,FaceAttractiveness,2022.2.5,142.17349145020663,
images\ LIP_CFD_WF_200_099_N.png,0,0,0,8,4,38,418,54,,,,,2023-04-07_20h02.24.384,FaceAttractiveness,2022.2.5,142.17349145020663,
"images\ LIP_CFD_WF_002_004_N.png
",0,0,0,8,4,39,419,53,,,,,2023-04-07_20h02.24.384,FaceAttractiveness,2022.2.5,142.17349145020663,
images\ RCHEEK_CFD_AF_245_143_N.png,0,0,0,8,4,40,420,82,,,,,2023-04-07_20h02.24.384,FaceAttractiveness,2022.2.5,142.17349145020663,
"images\ NASALTIP_CFD_WF_002_004_N.png
",0,0,0,8,4,41,421,72,,,,,2023-04-07_20h02.24.384,FaceAttractiveness,2022.2.5,142.17349145020663,
images\ LCHEEK_CFD_LM_203_026_N.png,0,0,0,8,4,42,422,33,,,,,2023-04-07_20h02.24.384,FaceAttractiveness,2022.2.5,142.17349145020663,
images\ RCHEEK_CFD_BF_224_002_N.png,0,0,0,8,4,43,423,85,,,,,2023-04-07_20h02.24.384,FaceAttractiveness,2022.2.5,142.17349145020663,
images\FOREHEAD_CFD_WF_250_167_N.png,0,0,0,8,4,44,424,17,,,,,2023-04-07_20h02.24.384,FaceAttractiveness,2022.2.5,142.17349145020663,
images\ RCHEEK_CFD_WF_200_099_N.png,0,0,0,8,4,45,425,92,,,,,2023-04-07_20h02.24.384,FaceAttractiveness,2022.2.5,142.17349145020663,
images\FOREHEAD_087_M_M_N_A.png,0,0,0,8,4,46,426,2,,,,,2023-04-07_20h02.24.384,FaceAttractiveness,2022.2.5,142.17349145020663,
images\ LCHEEK_CFD_AF_245_143_N.png,0,0,0,8,4,47,427,25,,,,,2023-04-07_20h02.24.384,FaceAttractiveness,2022.2.5,142.17349145020663,
images\FOREHEAD_CFD_LF_224_176_N.png,0,0,0,8,4,48,428,12,,,,,2023-04-07_20h02.24.384,FaceAttractiveness,2022.2.5,142.17349145020663,
"images\ LCHEEK_CFD_AM_233_236_N.png
",0,0,0,8,4,49,429,26,,,,,2023-04-07_20h02.24.384,FaceAttractiveness,2022.2.5,142.17349145020663,
images\ RCHEEK_CFD_LM_203_026_N.png,0,0,0,8,4,50,430,90,,,,,2023-04-07_20h02.24.384,FaceAttractiveness,2022.2.5,142.17349145020663,
images\ RCHEEK_CFD_BM_213_134_N.png,0,0,0,8,4,51,431,86,,,,,2023-04-07_20h02.24.384,FaceAttractiveness,2022.2.5,142.17349145020663,
images\ NASALTIP_CFD_AF_237_223_N.png,0,0,0,8,4,52,432,62,,,,,2023-04-07_20h02.24.384,FaceAttractiveness,2022.2.5,142.17349145020663,
images\ LCHEEK_CFD_LF_224_176_N.png,0,0,0,8,4,53,433,31,,,,,2023-04-07_20h02.24.384,FaceAttractiveness,2022.2.5,142.17349145020663,
images\ RCHEEK_006_M_F_N_A.png,0,0,0,8,4,54,434,76,,,,,2023-04-07_20h02.24.384,FaceAttractiveness,2022.2.5,142.17349145020663,
images\FOREHEAD_CFD_AM_233_236_N.png,0,0,0,8,4,55,435,7,,,,,2023-04-07_20h02.24.384,FaceAttractiveness,2022.2.5,142.17349145020663,
images\ LCHEEK_035_M_F_N_A.png,0,0,0,8,4,56,436,20,,,,,2023-04-07_20h02.24.384,FaceAttractiveness,2022.2.5,142.17349145020663,
images\ RCHEEK_CFD_WF_250_167_N.png,0,0,0,8,4,57,437,93,,,,,2023-04-07_20h02.24.384,FaceAttractiveness,2022.2.5,142.17349145020663,
images\FOREHEAD_CFD_BM_234_172_N.png,0,0,0,8,4,58,438,11,,,,,2023-04-07_20h02.24.384,FaceAttractiveness,2022.2.5,142.17349145020663,
images\ LCHEEK_CFD_BF_224_002_N.png,0,0,0,8,4,59,439,28,,,,,2023-04-07_20h02.24.384,FaceAttractiveness,2022.2.5,142.17349145020663,
images\ NASALTIP_CFD_LM_203_026_N.png,0,0,0,8,4,60,440,71,,,,,2023-04-07_20h02.24.384,FaceAttractiveness,2022.2.5,142.17349145020663,
images\FOREHEAD_CFD_BF_224_002_N.png,0,0,0,8,4,61,441,9,,,,,2023-04-07_20h02.24.384,FaceAttractiveness,2022.2.5,142.17349145020663,
images\ LIP_CFD_WF_250_167_N.png,0,0,0,8,4,62,442,55,,,,,2023-04-07_20h02.24.384,FaceAttractiveness,2022.2.5,142.17349145020663,
"images\ NASALTIP_CFD_BM_234_172_N.png
",0,0,0,8,4,63,443,68,,,,,2023-04-07_20h02.24.384,FaceAttractiveness,2022.2.5,142.17349145020663,
"images\ RCHEEK_CFD_BM_234_172_N.png
",0,0,0,8,4,64,444,87,,,,,2023-04-07_20h02.24.384,FaceAttractiveness,2022.2.5,142.17349145020663,
images\ NASALTIP_CFD_AF_245_143_N.png,0,0,0,8,4,65,445,63,,,,,2023-04-07_20h02.24.384,FaceAttractiveness,2022.2.5,142.17349145020663,
images\ LCHEEK_CFD_WM_212_097_N.png,0,0,0,8,4,66,446,37,,,,,2023-04-07_20h02.24.384,FaceAttractiveness,2022.2.5,142.17349145020663,
images\FOREHEAD_CFD_BM_213_134_N.png,0,0,0,8,4,67,447,10,,,,,2023-04-07_20h02.24.384,FaceAttractiveness,2022.2.5,142.17349145020663,
images\FOREHEAD_CFD_AF_237_223_N.png,0,0,0,8,4,68,448,5,,,,,2023-04-07_20h02.24.384,FaceAttractiveness,2022.2.5,142.17349145020663,
images\FOREHEAD_035_M_F_N_A.png,0,0,0,8,4,69,449,1,,,,,2023-04-07_20h02.24.384,FaceAttractiveness,2022.2.5,142.17349145020663,
images\ NASALTIP_035_M_F_N_A.png,0,0,0,8,4,70,450,58,,,,,2023-04-07_20h02.24.384,FaceAttractiveness,2022.2.5,142.17349145020663,
images\ NASALTIP_087_M_M_N_A.png,0,0,0,8,4,71,451,59,,,,,2023-04-07_20h02.24.384,FaceAttractiveness,2022.2.5,142.17349145020663,
images\ LIP_CFD_AF_245_143_N.png,0,0,0,8,4,72,452,44,,,,,2023-04-07_20h02.24.384,FaceAttractiveness,2022.2.5,142.17349145020663,
images\ NASALTIP_CFD_WF_200_099_N.png,0,0,0,8,4,73,453,73,,,,,2023-04-07_20h02.24.384,FaceAttractiveness,2022.2.5,142.17349145020663,
"images\ LCHEEK_136_M_M_N_A.png
",0,0,0,8,4,74,454,22,,,,,2023-04-07_20h02.24.384,FaceAttractiveness,2022.2.5,142.17349145020663,
images\ RCHEEK_CFD_AF_237_223_N.png,0,0,0,8,4,75,455,81,,,,,2023-04-07_20h02.24.384,FaceAttractiveness,2022.2.5,142.17349145020663,
"images\ RCHEEK_CFD_WF_002_004_N.png
",0,0,0,8,4,76,456,91,,,,,2023-04-07_20h02.24.384,FaceAttractiveness,2022.2.5,142.17349145020663,
images\ RCHEEK_CFD_LM_201_057_N.png,0,0,0,8,4,77,457,89,,,,,2023-04-07_20h02.24.384,FaceAttractiveness,2022.2.5,142.17349145020663,
"images\ RCHEEK_136_M_M_N_A.png
",0,0,0,8,4,78,458,79,,,,,2023-04-07_20h02.24.384,FaceAttractiveness,2022.2.5,142.17349145020663,
images\ LIP_CFD_BM_213_134_N.png,0,0,0,8,4,79,459,48,,,,,2023-04-07_20h02.24.384,FaceAttractiveness,2022.2.5,142.17349145020663,
images\ NASALTIP_CFD_AF_231_357_N.png,0,0,0,8,4,80,460,61,,,,,2023-04-07_20h02.24.384,FaceAttractiveness,2022.2.5,142.17349145020663,
images\ LCHEEK_CFD_WF_200_099_N.png,0,0,0,8,4,81,461,35,,,,,2023-04-07_20h02.24.384,FaceAttractiveness,2022.2.5,142.17349145020663,
images\ LIP_087_M_M_N_A.png,0,0,0,8,4,82,462,40,,,,,2023-04-07_20h02.24.384,FaceAttractiveness,2022.2.5,142.17349145020663,
images\ NASALTIP_CFD_BM_213_134_N.png,0,0,0,8,4,83,463,67,,,,,2023-04-07_20h02.24.384,FaceAttractiveness,2022.2.5,142.17349145020663,
images\ LCHEEK_CFD_WF_250_167_N.png,0,0,0,8,4,84,464,36,,,,,2023-04-07_20h02.24.384,FaceAttractiveness,2022.2.5,142.17349145020663,
images\FOREHEAD_CFD_AF_231_357_N.png,0,0,0,8,4,85,465,4,,,,,2023-04-07_20h02.24.384,FaceAttractiveness,2022.2.5,142.17349145020663,
images\FOREHEAD_CFD_BF_214_308_N.png,0,0,0,8,4,86,466,8,,,,,2023-04-07_20h02.24.384,FaceAttractiveness,2022.2.5,142.17349145020663,
images\FOREHEAD_CFD_LM_201_057_N.png,0,0,0,8,4,87,467,13,,,,,2023-04-07_20h02.24.384,FaceAttractiveness,2022.2.5,142.17349145020663,
images\ NASALTIP_CFD_BF_224_002_N.png,0,0,0,8,4,88,468,66,,,,,2023-04-07_20h02.24.384,FaceAttractiveness,2022.2.5,142.17349145020663,
images\ LCHEEK_CFD_LM_201_057_N.png,0,0,0,8,4,89,469,32,,,,,2023-04-07_20h02.24.384,FaceAttractiveness,2022.2.5,142.17349145020663,
images\ RCHEEK_087_M_M_N_A.png,0,0,0,8,4,90,470,78,,,,,2023-04-07_20h02.24.384,FaceAttractiveness,2022.2.5,142.17349145020663,
images\ LIP_CFD_AF_237_223_N.png,0,0,0,8,4,91,471,43,,,,,2023-04-07_20h02.24.384,FaceAttractiveness,2022.2.5,142.17349145020663,
images\ LCHEEK_087_M_M_N_A.png,0,0,0,8,4,92,472,21,,,,,2023-04-07_20h02.24.384,FaceAttractiveness,2022.2.5,142.17349145020663,
images\FOREHEAD_006_M_F_N_A.png,0,0,0,8,4,93,473,0,,,,,2023-04-07_20h02.24.384,FaceAttractiveness,2022.2.5,142.17349145020663,
images\ LIP_CFD_LM_203_026_N.png,0,0,0,8,4,94,474,52,,,,,2023-04-07_20h02.24.384,FaceAttractiveness,2022.2.5,142.17349145020663,
images\FOREHEAD_CFD_AF_245_143_N.png,0,0,0,8,5,0,475,6,,,,,2023-04-07_20h02.24.384,FaceAttractiveness,2022.2.5,142.17349145020663,
images\FOREHEAD_087_M_M_N_A.png,0,0,0,8,5,1,476,2,,,,,2023-04-07_20h02.24.384,FaceAttractiveness,2022.2.5,142.17349145020663,
images\ LCHEEK_CFD_BM_213_134_N.png,0,0,0,8,5,2,477,29,,,,,2023-04-07_20h02.24.384,FaceAttractiveness,2022.2.5,142.17349145020663,
images\ LIP_035_M_F_N_A.png,0,0,0,8,5,3,478,39,,,,,2023-04-07_20h02.24.384,FaceAttractiveness,2022.2.5,142.17349145020663,
images\ LCHEEK_CFD_LF_224_176_N.png,0,0,0,8,5,4,479,31,,,,,2023-04-07_20h02.24.384,FaceAttractiveness,2022.2.5,142.17349145020663,
images\ LIP_087_M_M_N_A.png,0,0,0,8,5,5,480,40,,,,,2023-04-07_20h02.24.384,FaceAttractiveness,2022.2.5,142.17349145020663,
"images\ RCHEEK_CFD_BM_234_172_N.png
",0,0,0,8,5,6,481,87,,,,,2023-04-07_20h02.24.384,FaceAttractiveness,2022.2.5,142.17349145020663,
images\ NASALTIP_CFD_BF_224_002_N.png,0,0,0,8,5,7,482,66,,,,,2023-04-07_20h02.24.384,FaceAttractiveness,2022.2.5,142.17349145020663,
images\FOREHEAD_CFD_WF_250_167_N.png,0,0,0,8,5,8,483,17,,,,,2023-04-07_20h02.24.384,FaceAttractiveness,2022.2.5,142.17349145020663,
"images\ LIP_CFD_BM_234_172_N.png
",0,0,0,8,5,9,484,49,,,,,2023-04-07_20h02.24.384,FaceAttractiveness,2022.2.5,142.17349145020663,
"images\ NASALTIP_136_M_M_N_A.png
",0,0,0,8,5,10,485,60,,,,,2023-04-07_20h02.24.384,FaceAttractiveness,2022.2.5,142.17349145020663,
images\ LCHEEK_CFD_AF_245_143_N.png,0,0,0,8,5,11,486,25,,,,,2023-04-07_20h02.24.384,FaceAttractiveness,2022.2.5,142.17349145020663,
images\FOREHEAD_CFD_LF_224_176_N.png,0,0,0,8,5,12,487,12,,,,,2023-04-07_20h02.24.384,FaceAttractiveness,2022.2.5,142.17349145020663,
images\ NASALTIP_CFD_BM_213_134_N.png,0,0,0,8,5,13,488,67,,,,,2023-04-07_20h02.24.384,FaceAttractiveness,2022.2.5,142.17349145020663,
images\ RCHEEK_006_M_F_N_A.png,0,0,0,8,5,14,489,76,,,,,2023-04-07_20h02.24.384,FaceAttractiveness,2022.2.5,142.17349145020663,
images\ LIP_006_M_F_N_A.png,0,0,0,8,5,15,490,38,,,,,2023-04-07_20h02.24.384,FaceAttractiveness,2022.2.5,142.17349145020663,
images\ RCHEEK_CFD_LM_201_057_N.png,0,0,0,8,5,16,491,89,,,,,2023-04-07_20h02.24.384,FaceAttractiveness,2022.2.5,142.17349145020663,
images\FOREHEAD_CFD_BF_224_002_N.png,0,0,0,8,5,17,492,9,,,,,2023-04-07_20h02.24.384,FaceAttractiveness,2022.2.5,142.17349145020663,
images\ LIP_CFD_AF_245_143_N.png,0,0,0,8,5,18,493,44,,,,,2023-04-07_20h02.24.384,FaceAttractiveness,2022.2.5,142.17349145020663,
images\ LIP_CFD_AF_237_223_N.png,0,0,0,8,5,19,494,43,,,,,2023-04-07_20h02.24.384,FaceAttractiveness,2022.2.5,142.17349145020663,
images\ NASALTIP_087_M_M_N_A.png,0,0,0,8,5,20,495,59,,,,,2023-04-07_20h02.24.384,FaceAttractiveness,2022.2.5,142.17349145020663,
"images\ NASALTIP_CFD_WF_002_004_N.png
",0,0,0,8,5,21,496,72,,,,,2023-04-07_20h02.24.384,FaceAttractiveness,2022.2.5,142.17349145020663,
images\ RCHEEK_CFD_BF_224_002_N.png,0,0,0,8,5,22,497,85,,,,,2023-04-07_20h02.24.384,FaceAttractiveness,2022.2.5,142.17349145020663,
"images\ LIP_136_M_M_N_A.png
",0,0,0,8,5,23,498,41,,,,,2023-04-07_20h02.24.384,FaceAttractiveness,2022.2.5,142.17349145020663,
images\ NASALTIP_CFD_WM_212_097_N.png,0,0,0,8,5,24,499,75,,,,,2023-04-07_20h02.24.384,FaceAttractiveness,2022.2.5,142.17349145020663,
images\FOREHEAD_CFD_LM_201_057_N.png,0,0,0,8,5,25,500,13,,,,,2023-04-07_20h02.24.384,FaceAttractiveness,2022.2.5,142.17349145020663,
images\ LIP_CFD_WF_250_167_N.png,0,0,0,8,5,26,501,55,,,,,2023-04-07_20h02.24.384,FaceAttractiveness,2022.2.5,142.17349145020663,
"images\ NASALTIP_CFD_AM_233_236_N.png
",0,0,0,8,5,27,502,64,,,,,2023-04-07_20h02.24.384,FaceAttractiveness,2022.2.5,142.17349145020663,
images\ LCHEEK_CFD_WF_200_099_N.png,0,0,0,8,5,28,503,35,,,,,2023-04-07_20h02.24.384,FaceAttractiveness,2022.2.5,142.17349145020663,
images\FOREHEAD_136_M_M_N_A.png,0,0,0,8,5,29,504,3,,,,,2023-04-07_20h02.24.384,FaceAttractiveness,2022.2.5,142.17349145020663,
"images\ LIP_CFD_AM_233_236_N.png
",0,0,0,8,5,30,505,45,,,,,2023-04-07_20h02.24.384,FaceAttractiveness,2022.2.5,142.17349145020663,
"images\ LCHEEK_CFD_BM_234_172_N.png
",0,0,0,8,5,31,506,30,,,,,2023-04-07_20h02.24.384,FaceAttractiveness,2022.2.5,142.17349145020663,
images\ RCHEEK_CFD_AF_245_143_N.png,0,0,0,8,5,32,507,82,,,,,2023-04-07_20h02.24.384,FaceAttractiveness,2022.2.5,142.17349145020663,
images\FOREHEAD_CFD_BF_214_308_N.png,0,0,0,8,5,33,508,8,,,,,2023-04-07_20h02.24.384,FaceAttractiveness,2022.2.5,142.17349145020663,
images\ NASALTIP_CFD_AF_237_223_N.png,0,0,0,8,5,34,509,62,,,,,2023-04-07_20h02.24.384,FaceAttractiveness,2022.2.5,142.17349145020663,
images\ RCHEEK_CFD_LF_224_176_N.png,0,0,0,8,5,35,510,88,,,,,2023-04-07_20h02.24.384,FaceAttractiveness,2022.2.5,142.17349145020663,
images\ RCHEEK_035_M_F_N_A.png,0,0,0,8,5,36,511,77,,,,,2023-04-07_20h02.24.384,FaceAttractiveness,2022.2.5,142.17349145020663,
images\ LCHEEK_CFD_LM_203_026_N.png,0,0,0,8,5,37,512,33,,,,,2023-04-07_20h02.24.384,FaceAttractiveness,2022.2.5,142.17349145020663,
images\ LIP_CFD_WM_212_097_N.png,0,0,0,8,5,38,513,56,,,,,2023-04-07_20h02.24.384,FaceAttractiveness,2022.2.5,142.17349145020663,
images\ NASALTIP_006_M_F_N_A.png,0,0,0,8,5,39,514,57,,,,,2023-04-07_20h02.24.384,FaceAttractiveness,2022.2.5,142.17349145020663,
images\ LCHEEK_CFD_LM_201_057_N.png,0,0,0,8,5,40,515,32,,,,,2023-04-07_20h02.24.384,FaceAttractiveness,2022.2.5,142.17349145020663,
images\FOREHEAD_CFD_BM_213_134_N.png,0,0,0,8,5,41,516,10,,,,,2023-04-07_20h02.24.384,FaceAttractiveness,2022.2.5,142.17349145020663,
images\ RCHEEK_CFD_LM_203_026_N.png,0,0,0,8,5,42,517,90,,,,,2023-04-07_20h02.24.384,FaceAttractiveness,2022.2.5,142.17349145020663,
images\ LIP_CFD_WF_200_099_N.png,0,0,0,8,5,43,518,54,,,,,2023-04-07_20h02.24.384,FaceAttractiveness,2022.2.5,142.17349145020663,
images\ LIP_CFD_BM_213_134_N.png,0,0,0,8,5,44,519,48,,,,,2023-04-07_20h02.24.384,FaceAttractiveness,2022.2.5,142.17349145020663,
images\FOREHEAD_CFD_BM_234_172_N.png,0,0,0,8,5,45,520,11,,,,,2023-04-07_20h02.24.384,FaceAttractiveness,2022.2.5,142.17349145020663,
images\ NASALTIP_CFD_WF_200_099_N.png,0,0,0,8,5,46,521,73,,,,,2023-04-07_20h02.24.384,FaceAttractiveness,2022.2.5,142.17349145020663,
images\ NASALTIP_CFD_AF_245_143_N.png,0,0,0,8,5,47,522,63,,,,,2023-04-07_20h02.24.384,FaceAttractiveness,2022.2.5,142.17349145020663,
images\ NASALTIP_CFD_BF_214_308_N.png,0,0,0,8,5,48,523,65,,,,,2023-04-07_20h02.24.384,FaceAttractiveness,2022.2.5,142.17349145020663,
images\ LIP_CFD_AF_231_357_N.png,0,0,0,8,5,49,524,42,,,,,2023-04-07_20h02.24.384,FaceAttractiveness,2022.2.5,142.17349145020663,
"images\ RCHEEK_CFD_WF_002_004_N.png
",0,0,0,8,5,50,525,91,,,,,2023-04-07_20h02.24.384,FaceAttractiveness,2022.2.5,142.17349145020663,
images\FOREHEAD_CFD_AF_237_223_N.png,0,0,0,8,5,51,526,5,,,,,2023-04-07_20h02.24.384,FaceAttractiveness,2022.2.5,142.17349145020663,
images\ RCHEEK_087_M_M_N_A.png,0,0,0,8,5,52,527,78,,,,,2023-04-07_20h02.24.384,FaceAttractiveness,2022.2.5,142.17349145020663,
"images\ LCHEEK_136_M_M_N_A.png
",0,0,0,8,5,53,528,22,,,,,2023-04-07_20h02.24.384,FaceAttractiveness,2022.2.5,142.17349145020663,
images\ RCHEEK_CFD_WF_250_167_N.png,0,0,0,8,5,54,529,93,,,,,2023-04-07_20h02.24.384,FaceAttractiveness,2022.2.5,142.17349145020663,
"images\ LIP_CFD_WF_002_004_N.png
",0,0,0,8,5,55,530,53,,,,,2023-04-07_20h02.24.384,FaceAttractiveness,2022.2.5,142.17349145020663,
images\ LCHEEK_CFD_BF_224_002_N.png,0,0,0,8,5,56,531,28,,,,,2023-04-07_20h02.24.384,FaceAttractiveness,2022.2.5,142.17349145020663,
images\FOREHEAD_CFD_WM_212_097_N.png,0,0,0,8,5,57,532,18,,,,,2023-04-07_20h02.24.384,FaceAttractiveness,2022.2.5,142.17349145020663,
images\ RCHEEK_CFD_WM_212_097_N.png,0,0,0,8,5,58,533,94,,,,,2023-04-07_20h02.24.384,FaceAttractiveness,2022.2.5,142.17349145020663,
images\ NASALTIP_CFD_LM_201_057_N.png,0,0,0,8,5,59,534,70,,,,,2023-04-07_20h02.24.384,FaceAttractiveness,2022.2.5,142.17349145020663,
images\FOREHEAD_CFD_WF_002_004_N.png,0,0,0,8,5,60,535,15,,,,,2023-04-07_20h02.24.384,FaceAttractiveness,2022.2.5,142.17349145020663,
images\FOREHEAD_035_M_F_N_A.png,0,0,0,8,5,61,536,1,,,,,2023-04-07_20h02.24.384,FaceAttractiveness,2022.2.5,142.17349145020663,
images\ LCHEEK_CFD_AF_231_357_N.png,0,0,0,8,5,62,537,23,,,,,2023-04-07_20h02.24.384,FaceAttractiveness,2022.2.5,142.17349145020663,
images\ NASALTIP_CFD_LM_203_026_N.png,0,0,0,8,5,63,538,71,,,,,2023-04-07_20h02.24.384,FaceAttractiveness,2022.2.5,142.17349145020663,
images\ LIP_CFD_LM_203_026_N.png,0,0,0,8,5,64,539,52,,,,,2023-04-07_20h02.24.384,FaceAttractiveness,2022.2.5,142.17349145020663,
images\ NASALTIP_CFD_AF_231_357_N.png,0,0,0,8,5,65,540,61,,,,,2023-04-07_20h02.24.384,FaceAttractiveness,2022.2.5,142.17349145020663,
images\ LCHEEK_CFD_BF_214_308_N.png,0,0,0,8,5,66,541,27,,,,,2023-04-07_20h02.24.384,FaceAttractiveness,2022.2.5,142.17349145020663,
images\ RCHEEK_CFD_BF_214_308_N.png,0,0,0,8,5,67,542,84,,,,,2023-04-07_20h02.24.384,FaceAttractiveness,2022.2.5,142.17349145020663,
images\FOREHEAD_CFD_WF_200_099_N.png,0,0,0,8,5,68,543,16,,,,,2023-04-07_20h02.24.384,FaceAttractiveness,2022.2.5,142.17349145020663,
images\ LIP_CFD_LM_201_057_N.png,0,0,0,8,5,69,544,51,,,,,2023-04-07_20h02.24.384,FaceAttractiveness,2022.2.5,142.17349145020663,
images\ RCHEEK_CFD_BM_213_134_N.png,0,0,0,8,5,70,545,86,,,,,2023-04-07_20h02.24.384,FaceAttractiveness,2022.2.5,142.17349145020663,
images\ LIP_CFD_LF_224_176_N.png,0,0,0,8,5,71,546,50,,,,,2023-04-07_20h02.24.384,FaceAttractiveness,2022.2.5,142.17349145020663,
images\ RCHEEK_CFD_AF_231_357_N.png,0,0,0,8,5,72,547,80,,,,,2023-04-07_20h02.24.384,FaceAttractiveness,2022.2.5,142.17349145020663,
images\ NASALTIP_CFD_WF_250_167_N.png,0,0,0,8,5,73,548,74,,,,,2023-04-07_20h02.24.384,FaceAttractiveness,2022.2.5,142.17349145020663,
"images\ NASALTIP_CFD_BM_234_172_N.png
",0,0,0,8,5,74,549,68,,,,,2023-04-07_20h02.24.384,FaceAttractiveness,2022.2.5,142.17349145020663,
images\FOREHEAD_CFD_AF_231_357_N.png,0,0,0,8,5,75,550,4,,,,,2023-04-07_20h02.24.384,FaceAttractiveness,2022.2.5,142.17349145020663,
images\ RCHEEK_CFD_AF_237_223_N.png,0,0,0,8,5,76,551,81,,,,,2023-04-07_20h02.24.384,FaceAttractiveness,2022.2.5,142.17349145020663,
images\ LIP_CFD_BF_224_002_N.png,0,0,0,8,5,77,552,47,,,,,2023-04-07_20h02.24.384,FaceAttractiveness,2022.2.5,142.17349145020663,
images\ LIP_CFD_BF_214_308_N.png,0,0,0,8,5,78,553,46,,,,,2023-04-07_20h02.24.384,FaceAttractiveness,2022.2.5,142.17349145020663,
images\ LCHEEK_006_M_F_N_A.png,0,0,0,8,5,79,554,19,,,,,2023-04-07_20h02.24.384,FaceAttractiveness,2022.2.5,142.17349145020663,
"images\ RCHEEK_136_M_M_N_A.png
",0,0,0,8,5,80,555,79,,,,,2023-04-07_20h02.24.384,FaceAttractiveness,2022.2.5,142.17349145020663,
images\ LCHEEK_087_M_M_N_A.png,0,0,0,8,5,81,556,21,,,,,2023-04-07_20h02.24.384,FaceAttractiveness,2022.2.5,142.17349145020663,
images\ NASALTIP_CFD_LF_224_176_N.png,0,0,0,8,5,82,557,69,,,,,2023-04-07_20h02.24.384,FaceAttractiveness,2022.2.5,142.17349145020663,
images\ LCHEEK_CFD_WF_250_167_N.png,0,0,0,8,5,83,558,36,,,,,2023-04-07_20h02.24.384,FaceAttractiveness,2022.2.5,142.17349145020663,
"images\ LCHEEK_CFD_WF_002_004_N.png
",0,0,0,8,5,84,559,34,,,,,2023-04-07_20h02.24.384,FaceAttractiveness,2022.2.5,142.17349145020663,
"images\ RCHEEK_CFD_AM_233_236_N.png
",0,0,0,8,5,85,560,83,,,,,2023-04-07_20h02.24.384,FaceAttractiveness,2022.2.5,142.17349145020663,
images\ LCHEEK_CFD_AF_237_223_N.png,0,0,0,8,5,86,561,24,,,,,2023-04-07_20h02.24.384,FaceAttractiveness,2022.2.5,142.17349145020663,
images\ NASALTIP_035_M_F_N_A.png,0,0,0,8,5,87,562,58,,,,,2023-04-07_20h02.24.384,FaceAttractiveness,2022.2.5,142.17349145020663,
images\FOREHEAD_CFD_LM_203_026_N.png,0,0,0,8,5,88,563,14,,,,,2023-04-07_20h02.24.384,FaceAttractiveness,2022.2.5,142.17349145020663,
images\ LCHEEK_035_M_F_N_A.png,0,0,0,8,5,89,564,20,,,,,2023-04-07_20h02.24.384,FaceAttractiveness,2022.2.5,142.17349145020663,
images\FOREHEAD_CFD_AM_233_236_N.png,0,0,0,8,5,90,565,7,,,,,2023-04-07_20h02.24.384,FaceAttractiveness,2022.2.5,142.17349145020663,
images\FOREHEAD_006_M_F_N_A.png,0,0,0,8,5,91,566,0,,,,,2023-04-07_20h02.24.384,FaceAttractiveness,2022.2.5,142.17349145020663,
images\ LCHEEK_CFD_WM_212_097_N.png,0,0,0,8,5,92,567,37,,,,,2023-04-07_20h02.24.384,FaceAttractiveness,2022.2.5,142.17349145020663,
images\ RCHEEK_CFD_WF_200_099_N.png,0,0,0,8,5,93,568,92,,,,,2023-04-07_20h02.24.384,FaceAttractiveness,2022.2.5,142.17349145020663,
"images\ LCHEEK_CFD_AM_233_236_N.png
",0,0,0,8,5,94,569,26,,,,,2023-04-07_20h02.24.384,FaceAttractiveness,2022.2.5,142.17349145020663,
images\ RCHEEK_CFD_AF_245_143_N.png,0,0,0,8,6,0,570,82,,,,,2023-04-07_20h02.24.384,FaceAttractiveness,2022.2.5,142.17349145020663,
images\ LCHEEK_CFD_AF_237_223_N.png,0,0,0,8,6,1,571,24,,,,,2023-04-07_20h02.24.384,FaceAttractiveness,2022.2.5,142.17349145020663,
"images\ RCHEEK_CFD_BM_234_172_N.png
",0,0,0,8,6,2,572,87,,,,,2023-04-07_20h02.24.384,FaceAttractiveness,2022.2.5,142.17349145020663,
images\ RCHEEK_CFD_LF_224_176_N.png,0,0,0,8,6,3,573,88,,,,,2023-04-07_20h02.24.384,FaceAttractiveness,2022.2.5,142.17349145020663,
images\ LIP_CFD_WF_200_099_N.png,0,0,0,8,6,4,574,54,,,,,2023-04-07_20h02.24.384,FaceAttractiveness,2022.2.5,142.17349145020663,
images\ NASALTIP_CFD_AF_245_143_N.png,0,0,0,8,6,5,575,63,,,,,2023-04-07_20h02.24.384,FaceAttractiveness,2022.2.5,142.17349145020663,
images\ LCHEEK_CFD_WF_250_167_N.png,0,0,0,8,6,6,576,36,,,,,2023-04-07_20h02.24.384,FaceAttractiveness,2022.2.5,142.17349145020663,
images\ LIP_006_M_F_N_A.png,0,0,0,8,6,7,577,38,,,,,2023-04-07_20h02.24.384,FaceAttractiveness,2022.2.5,142.17349145020663,
images\FOREHEAD_CFD_AF_231_357_N.png,0,0,0,8,6,8,578,4,,,,,2023-04-07_20h02.24.384,FaceAttractiveness,2022.2.5,142.17349145020663,
images\ LCHEEK_006_M_F_N_A.png,0,0,0,8,6,9,579,19,,,,,2023-04-07_20h02.24.384,FaceAttractiveness,2022.2.5,142.17349145020663,
images\ LIP_CFD_LM_203_026_N.png,0,0,0,8,6,10,580,52,,,,,2023-04-07_20h02.24.384,FaceAttractiveness,2022.2.5,142.17349145020663,
images\ RCHEEK_CFD_BF_224_002_N.png,0,0,0,8,6,11,581,85,,,,,2023-04-07_20h02.24.384,FaceAttractiveness,2022.2.5,142.17349145020663,
images\ LIP_CFD_LF_224_176_N.png,0,0,0,8,6,12,582,50,,,,,2023-04-07_20h02.24.384,FaceAttractiveness,2022.2.5,142.17349145020663,
images\FOREHEAD_006_M_F_N_A.png,0,0,0,8,6,13,583,0,,,,,2023-04-07_20h02.24.384,FaceAttractiveness,2022.2.5,142.17349145020663,
images\ RCHEEK_CFD_AF_231_357_N.png,0,0,0,8,6,14,584,80,,,,,2023-04-07_20h02.24.384,FaceAttractiveness,2022.2.5,142.17349145020663,
images\ LIP_CFD_BM_213_134_N.png,0,0,0,8,6,15,585,48,,,,,2023-04-07_20h02.24.384,FaceAttractiveness,2022.2.5,142.17349145020663,
images\ LCHEEK_CFD_WM_212_097_N.png,0,0,0,8,6,16,586,37,,,,,2023-04-07_20h02.24.384,FaceAttractiveness,2022.2.5,142.17349145020663,
images\ RCHEEK_CFD_LM_201_057_N.png,0,0,0,8,6,17,587,89,,,,,2023-04-07_20h02.24.384,FaceAttractiveness,2022.2.5,142.17349145020663,
images\ RCHEEK_087_M_M_N_A.png,0,0,0,8,6,18,588,78,,,,,2023-04-07_20h02.24.384,FaceAttractiveness,2022.2.5,142.17349145020663,
images\ LIP_035_M_F_N_A.png,0,0,0,8,6,19,589,39,,,,,2023-04-07_20h02.24.384,FaceAttractiveness,2022.2.5,142.17349145020663,
images\ RCHEEK_CFD_WM_212_097_N.png,0,0,0,8,6,20,590,94,,,,,2023-04-07_20h02.24.384,FaceAttractiveness,2022.2.5,142.17349145020663,
images\ NASALTIP_035_M_F_N_A.png,0,0,0,8,6,21,591,58,,,,,2023-04-07_20h02.24.384,FaceAttractiveness,2022.2.5,142.17349145020663,
images\ NASALTIP_CFD_WM_212_097_N.png,0,0,0,8,6,22,592,75,,,,,2023-04-07_20h02.24.384,FaceAttractiveness,2022.2.5,142.17349145020663,
images\FOREHEAD_CFD_LM_203_026_N.png,0,0,0,8,6,23,593,14,,,,,2023-04-07_20h02.24.384,FaceAttractiveness,2022.2.5,142.17349145020663,
images\ LIP_CFD_WF_250_167_N.png,0,0,0,8,6,24,594,55,,,,,2023-04-07_20h02.24.384,FaceAttractiveness,2022.2.5,142.17349145020663,
images\ NASALTIP_087_M_M_N_A.png,0,0,0,8,6,25,595,59,,,,,2023-04-07_20h02.24.384,FaceAttractiveness,2022.2.5,142.17349145020663,
"images\ LCHEEK_136_M_M_N_A.png
",0,0,0,8,6,26,596,22,,,,,2023-04-07_20h02.24.384,FaceAttractiveness,2022.2.5,142.17349145020663,
"images\ LCHEEK_CFD_AM_233_236_N.png
",0,0,0,8,6,27,597,26,,,,,2023-04-07_20h02.24.384,FaceAttractiveness,2022.2.5,142.17349145020663,
images\FOREHEAD_CFD_BM_234_172_N.png,0,0,0,8,6,28,598,11,,,,,2023-04-07_20h02.24.384,FaceAttractiveness,2022.2.5,142.17349145020663,
images\ RCHEEK_006_M_F_N_A.png,0,0,0,8,6,29,599,76,,,,,2023-04-07_20h02.24.384,FaceAttractiveness,2022.2.5,142.17349145020663,
images\ LCHEEK_CFD_AF_245_143_N.png,0,0,0,8,6,30,600,25,,,,,2023-04-07_20h02.24.384,FaceAttractiveness,2022.2.5,142.17349145020663,
images\ RCHEEK_CFD_BM_213_134_N.png,0,0,0,8,6,31,601,86,,,,,2023-04-07_20h02.24.384,FaceAttractiveness,2022.2.5,142.17349145020663,
images\ LIP_CFD_AF_237_223_N.png,0,0,0,8,6,32,602,43,,,,,2023-04-07_20h02.24.384,FaceAttractiveness,2022.2.5,142.17349145020663,
images\ LCHEEK_087_M_M_N_A.png,0,0,0,8,6,33,603,21,,,,,2023-04-07_20h02.24.384,FaceAttractiveness,2022.2.5,142.17349145020663,
images\FOREHEAD_CFD_WF_002_004_N.png,0,0,0,8,6,34,604,15,,,,,2023-04-07_20h02.24.384,FaceAttractiveness,2022.2.5,142.17349145020663,
images\ LIP_CFD_AF_231_357_N.png,0,0,0,8,6,35,605,42,,,,,2023-04-07_20h02.24.384,FaceAttractiveness,2022.2.5,142.17349145020663,
"images\ RCHEEK_CFD_AM_233_236_N.png
",0,0,0,8,6,36,606,83,,,,,2023-04-07_20h02.24.384,FaceAttractiveness,2022.2.5,142.17349145020663,
images\ LCHEEK_CFD_BM_213_134_N.png,0,0,0,8,6,37,607,29,,,,,2023-04-07_20h02.24.384,FaceAttractiveness,2022.2.5,142.17349145020663,
images\FOREHEAD_CFD_BF_224_002_N.png,0,0,0,8,6,38,608,9,,,,,2023-04-07_20h02.24.384,FaceAttractiveness,2022.2.5,142.17349145020663,
"images\ LIP_CFD_BM_234_172_N.png
",0,0,0,8,6,39,609,49,,,,,2023-04-07_20h02.24.384,FaceAttractiveness,2022.2.5,142.17349145020663,
"images\ NASALTIP_CFD_AM_233_236_N.png
",0,0,0,8,6,40,610,64,,,,,2023-04-07_20h02.24.384,FaceAttractiveness,2022.2.5,142.17349145020663,
images\FOREHEAD_CFD_BM_213_134_N.png,0,0,0,8,6,41,611,10,,,,,2023-04-07_20h02.24.384,FaceAttractiveness,2022.2.5,142.17349145020663,
"images\ LIP_CFD_AM_233_236_N.png
",0,0,0,8,6,42,612,45,,,,,2023-04-07_20h02.24.384,FaceAttractiveness,2022.2.5,142.17349145020663,
images\FOREHEAD_CFD_LM_201_057_N.png,0,0,0,8,6,43,613,13,,,,,2023-04-07_20h02.24.384,FaceAttractiveness,2022.2.5,142.17349145020663,
"images\ LCHEEK_CFD_WF_002_004_N.png
",0,0,0,8,6,44,614,34,,,,,2023-04-07_20h02.24.384,FaceAttractiveness,2022.2.5,142.17349145020663,
"images\ NASALTIP_CFD_BM_234_172_N.png
",0,0,0,8,6,45,615,68,,,,,2023-04-07_20h02.24.384,FaceAttractiveness,2022.2.5,142.17349145020663,
images\ LCHEEK_035_M_F_N_A.png,0,0,0,8,6,46,616,20,,,,,2023-04-07_20h02.24.384,FaceAttractiveness,2022.2.5,142.17349145020663,
images\FOREHEAD_CFD_AF_237_223_N.png,0,0,0,8,6,47,617,5,,,,,2023-04-07_20h02.24.384,FaceAttractiveness,2022.2.5,142.17349145020663,
images\ LCHEEK_CFD_AF_231_357_N.png,0,0,0,8,6,48,618,23,,,,,2023-04-07_20h02.24.384,FaceAttractiveness,2022.2.5,142.17349145020663,
images\ RCHEEK_CFD_LM_203_026_N.png,0,0,0,8,6,49,619,90,,,,,2023-04-07_20h02.24.384,FaceAttractiveness,2022.2.5,142.17349145020663,
images\FOREHEAD_136_M_M_N_A.png,0,0,0,8,6,50,620,3,,,,,2023-04-07_20h02.24.384,FaceAttractiveness,2022.2.5,142.17349145020663,
"images\ RCHEEK_136_M_M_N_A.png
",0,0,0,8,6,51,621,79,,,,,2023-04-07_20h02.24.384,FaceAttractiveness,2022.2.5,142.17349145020663,
images\ LIP_CFD_BF_214_308_N.png,0,0,0,8,6,52,622,46,,,,,2023-04-07_20h02.24.384,FaceAttractiveness,2022.2.5,142.17349145020663,
images\ LIP_CFD_BF_224_002_N.png,0,0,0,8,6,53,623,47,,,,,2023-04-07_20h02.24.384,FaceAttractiveness,2022.2.5,142.17349145020663,
images\ NASALTIP_CFD_BF_214_308_N.png,0,0,0,8,6,54,624,65,,,,,2023-04-07_20h02.24.384,FaceAttractiveness,2022.2.5,142.17349145020663,
images\ RCHEEK_CFD_WF_200_099_N.png,0,0,0,8,6,55,625,92,,,,,2023-04-07_20h02.24.384,FaceAttractiveness,2022.2.5,142.17349145020663,
images\ LCHEEK_CFD_LM_203_026_N.png,0,0,0,8,6,56,626,33,,,,,2023-04-07_20h02.24.384,FaceAttractiveness,2022.2.5,142.17349145020663,
images\ LCHEEK_CFD_LF_224_176_N.png,0,0,0,8,6,57,627,31,,,,,2023-04-07_20h02.24.384,FaceAttractiveness,2022.2.5,142.17349145020663,
images\ LCHEEK_CFD_WF_200_099_N.png,0,0,0,8,6,58,628,35,,,,,2023-04-07_20h02.24.384,FaceAttractiveness,2022.2.5,142.17349145020663,
images\ NASALTIP_CFD_AF_231_357_N.png,0,0,0,8,6,59,629,61,,,,,2023-04-07_20h02.24.384,FaceAttractiveness,2022.2.5,142.17349145020663,
images\ LCHEEK_CFD_BF_224_002_N.png,0,0,0,8,6,60,630,28,,,,,2023-04-07_20h02.24.384,FaceAttractiveness,2022.2.5,142.17349145020663,
"images\ LIP_CFD_WF_002_004_N.png
",0,0,0,8,6,61,631,53,,,,,2023-04-07_20h02.24.384,FaceAttractiveness,2022.2.5,142.17349145020663,
"images\ LIP_136_M_M_N_A.png
",0,0,0,8,6,62,632,41,,,,,2023-04-07_20h02.24.384,FaceAttractiveness,2022.2.5,142.17349145020663,
images\ NASALTIP_CFD_AF_237_223_N.png,0,0,0,8,6,63,633,62,,,,,2023-04-07_20h02.24.384,FaceAttractiveness,2022.2.5,142.17349145020663,
images\FOREHEAD_CFD_AF_245_143_N.png,0,0,0,8,6,64,634,6,,,,,2023-04-07_20h02.24.384,FaceAttractiveness,2022.2.5,142.17349145020663,
images\ LIP_CFD_LM_201_057_N.png,0,0,0,8,6,65,635,51,,,,,2023-04-07_20h02.24.384,FaceAttractiveness,2022.2.5,142.17349145020663,
images\FOREHEAD_087_M_M_N_A.png,0,0,0,8,6,66,636,2,,,,,2023-04-07_20h02.24.384,FaceAttractiveness,2022.2.5,142.17349145020663,
images\ RCHEEK_CFD_WF_250_167_N.png,0,0,0,8,6,67,637,93,,,,,2023-04-07_20h02.24.384,FaceAttractiveness,2022.2.5,142.17349145020663,
images\FOREHEAD_CFD_AM_233_236_N.png,0,0,0,8,6,68,638,7,,,,,2023-04-07_20h02.24.384,FaceAttractiveness,2022.2.5,142.17349145020663,
"images\ NASALTIP_136_M_M_N_A.png
",0,0,0,8,6,69,639,60,,,,,2023-04-07_20h02.24.384,FaceAttractiveness,2022.2.5,142.17349145020663,
images\ NASALTIP_CFD_WF_200_099_N.png,0,0,0,8,6,70,640,73,,,,,2023-04-07_20h02.24.384,FaceAttractiveness,2022.2.5,142.17349145020663,
images\FOREHEAD_CFD_WM_212_097_N.png,0,0,0,8,6,71,641,18,,,,,2023-04-07_20h02.24.384,FaceAttractiveness,2022.2.5,142.17349145020663,
images\ LIP_087_M_M_N_A.png,0,0,0,8,6,72,642,40,,,,,2023-04-07_20h02.24.384,FaceAttractiveness,2022.2.5,142.17349145020663,
images\ NASALTIP_CFD_LM_201_057_N.png,0,0,0,8,6,73,643,70,,,,,2023-04-07_20h02.24.384,FaceAttractiveness,2022.2.5,142.17349145020663,
"images\ NASALTIP_CFD_WF_002_004_N.png
",0,0,0,8,6,74,644,72,,,,,2023-04-07_20h02.24.384,FaceAttractiveness,2022.2.5,142.17349145020663,
images\ LCHEEK_CFD_LM_201_057_N.png,0,0,0,8,6,75,645,32,,,,,2023-04-07_20h02.24.384,FaceAttractiveness,2022.2.5,142.17349145020663,
images\ LCHEEK_CFD_BF_214_308_N.png,0,0,0,8,6,76,646,27,,,,,2023-04-07_20h02.24.384,FaceAttractiveness,2022.2.5,142.17349145020663,
images\ RCHEEK_CFD_BF_214_308_N.png,0,0,0,8,6,77,647,84,,,,,2023-04-07_20h02.24.384,FaceAttractiveness,2022.2.5,142.17349145020663,
"images\ LCHEEK_CFD_BM_234_172_N.png
",0,0,0,8,6,78,648,30,,,,,2023-04-07_20h02.24.384,FaceAttractiveness,2022.2.5,142.17349145020663,
"images\ RCHEEK_CFD_WF_002_004_N.png
",0,0,0,8,6,79,649,91,,,,,2023-04-07_20h02.24.384,FaceAttractiveness,2022.2.5,142.17349145020663,
images\ LIP_CFD_AF_245_143_N.png,0,0,0,8,6,80,650,44,,,,,2023-04-07_20h02.24.384,FaceAttractiveness,2022.2.5,142.17349145020663,
images\ NASALTIP_CFD_WF_250_167_N.png,0,0,0,8,6,81,651,74,,,,,2023-04-07_20h02.24.384,FaceAttractiveness,2022.2.5,142.17349145020663,
images\FOREHEAD_CFD_WF_250_167_N.png,0,0,0,8,6,82,652,17,,,,,2023-04-07_20h02.24.384,FaceAttractiveness,2022.2.5,142.17349145020663,
images\ NASALTIP_CFD_BM_213_134_N.png,0,0,0,8,6,83,653,67,,,,,2023-04-07_20h02.24.384,FaceAttractiveness,2022.2.5,142.17349145020663,
images\ RCHEEK_035_M_F_N_A.png,0,0,0,8,6,84,654,77,,,,,2023-04-07_20h02.24.384,FaceAttractiveness,2022.2.5,142.17349145020663,
images\ NASALTIP_006_M_F_N_A.png,0,0,0,8,6,85,655,57,,,,,2023-04-07_20h02.24.384,FaceAttractiveness,2022.2.5,142.17349145020663,
images\FOREHEAD_CFD_LF_224_176_N.png,0,0,0,8,6,86,656,12,,,,,2023-04-07_20h02.24.384,FaceAttractiveness,2022.2.5,142.17349145020663,
images\ LIP_CFD_WM_212_097_N.png,0,0,0,8,6,87,657,56,,,,,2023-04-07_20h02.24.384,FaceAttractiveness,2022.2.5,142.17349145020663,
images\ RCHEEK_CFD_AF_237_223_N.png,0,0,0,8,6,88,658,81,,,,,2023-04-07_20h02.24.384,FaceAttractiveness,2022.2.5,142.17349145020663,
images\FOREHEAD_035_M_F_N_A.png,0,0,0,8,6,89,659,1,,,,,2023-04-07_20h02.24.384,FaceAttractiveness,2022.2.5,142.17349145020663,
images\FOREHEAD_CFD_BF_214_308_N.png,0,0,0,8,6,90,660,8,,,,,2023-04-07_20h02.24.384,FaceAttractiveness,2022.2.5,142.17349145020663,
images\FOREHEAD_CFD_WF_200_099_N.png,0,0,0,8,6,91,661,16,,,,,2023-04-07_20h02.24.384,FaceAttractiveness,2022.2.5,142.17349145020663,
images\ NASALTIP_CFD_LF_224_176_N.png,0,0,0,8,6,92,662,69,,,,,2023-04-07_20h02.24.384,FaceAttractiveness,2022.2.5,142.17349145020663,
images\ NASALTIP_CFD_LM_203_026_N.png,0,0,0,8,6,93,663,71,,,,,2023-04-07_20h02.24.384,FaceAttractiveness,2022.2.5,142.17349145020663,
images\ NASALTIP_CFD_BF_224_002_N.png,0,0,0,8,6,94,664,66,,,,,2023-04-07_20h02.24.384,FaceAttractiveness,2022.2.5,142.17349145020663,
"images\ NASALTIP_CFD_BM_234_172_N.png
",0,0,0,8,7,0,665,68,,,,,2023-04-07_20h02.24.384,FaceAttractiveness,2022.2.5,142.17349145020663,
images\ RCHEEK_CFD_AF_237_223_N.png,0,0,0,8,7,1,666,81,,,,,2023-04-07_20h02.24.384,FaceAttractiveness,2022.2.5,142.17349145020663,
images\FOREHEAD_CFD_LM_203_026_N.png,0,0,0,8,7,2,667,14,,,,,2023-04-07_20h02.24.384,FaceAttractiveness,2022.2.5,142.17349145020663,
images\ NASALTIP_CFD_LM_203_026_N.png,0,0,0,8,7,3,668,71,,,,,2023-04-07_20h02.24.384,FaceAttractiveness,2022.2.5,142.17349145020663,
"images\ LCHEEK_CFD_WF_002_004_N.png
",0,0,0,8,7,4,669,34,,,,,2023-04-07_20h02.24.384,FaceAttractiveness,2022.2.5,142.17349145020663,
images\ LIP_CFD_AF_237_223_N.png,0,0,0,8,7,5,670,43,,,,,2023-04-07_20h02.24.384,FaceAttractiveness,2022.2.5,142.17349145020663,
images\ LIP_CFD_WM_212_097_N.png,0,0,0,8,7,6,671,56,,,,,2023-04-07_20h02.24.384,FaceAttractiveness,2022.2.5,142.17349145020663,
images\ NASALTIP_087_M_M_N_A.png,0,0,0,8,7,7,672,59,,,,,2023-04-07_20h02.24.384,FaceAttractiveness,2022.2.5,142.17349145020663,
"images\ RCHEEK_CFD_BM_234_172_N.png
",0,0,0,8,7,8,673,87,,,,,2023-04-07_20h02.24.384,FaceAttractiveness,2022.2.5,142.17349145020663,
images\ NASALTIP_CFD_BF_214_308_N.png,0,0,0,8,7,9,674,65,,,,,2023-04-07_20h02.24.384,FaceAttractiveness,2022.2.5,142.17349145020663,
images\FOREHEAD_CFD_AF_245_143_N.png,0,0,0,8,7,10,675,6,,,,,2023-04-07_20h02.24.384,FaceAttractiveness,2022.2.5,142.17349145020663,
images\ LIP_CFD_WF_200_099_N.png,0,0,0,8,7,11,676,54,,,,,2023-04-07_20h02.24.384,FaceAttractiveness,2022.2.5,142.17349145020663,
images\ RCHEEK_CFD_WF_200_099_N.png,0,0,0,8,7,12,677,92,,,,,2023-04-07_20h02.24.384,FaceAttractiveness,2022.2.5,142.17349145020663,
images\ RCHEEK_CFD_WM_212_097_N.png,0,0,0,8,7,13,678,94,,,,,2023-04-07_20h02.24.384,FaceAttractiveness,2022.2.5,142.17349145020663,
images\FOREHEAD_CFD_AF_237_223_N.png,0,0,0,8,7,14,679,5,,,,,2023-04-07_20h02.24.384,FaceAttractiveness,2022.2.5,142.17349145020663,
"images\ NASALTIP_CFD_WF_002_004_N.png
",0,0,0,8,7,15,680,72,,,,,2023-04-07_20h02.24.384,FaceAttractiveness,2022.2.5,142.17349145020663,
images\ LCHEEK_CFD_WM_212_097_N.png,0,0,0,8,7,16,681,37,,,,,2023-04-07_20h02.24.384,FaceAttractiveness,2022.2.5,142.17349145020663,
images\ LCHEEK_CFD_AF_231_357_N.png,0,0,0,8,7,17,682,23,,,,,2023-04-07_20h02.24.384,FaceAttractiveness,2022.2.5,142.17349145020663,
"images\ LCHEEK_CFD_BM_234_172_N.png
",0,0,0,8,7,18,683,30,,,,,2023-04-07_20h02.24.384,FaceAttractiveness,2022.2.5,142.17349145020663,
images\ NASALTIP_CFD_WF_250_167_N.png,0,0,0,8,7,19,684,74,,,,,2023-04-07_20h02.24.384,FaceAttractiveness,2022.2.5,142.17349145020663,
images\ RCHEEK_CFD_BF_214_308_N.png,0,0,0,8,7,20,685,84,,,,,2023-04-07_20h02.24.384,FaceAttractiveness,2022.2.5,142.17349145020663,
"images\ LIP_CFD_AM_233_236_N.png
",0,0,0,8,7,21,686,45,,,,,2023-04-07_20h02.24.384,FaceAttractiveness,2022.2.5,142.17349145020663,
images\ RCHEEK_CFD_LF_224_176_N.png,0,0,0,8,7,22,687,88,,,,,2023-04-07_20h02.24.384,FaceAttractiveness,2022.2.5,142.17349145020663,
images\FOREHEAD_CFD_BF_224_002_N.png,0,0,0,8,7,23,688,9,,,,,2023-04-07_20h02.24.384,FaceAttractiveness,2022.2.5,142.17349145020663,
images\ NASALTIP_CFD_WF_200_099_N.png,0,0,0,8,7,24,689,73,,,,,2023-04-07_20h02.24.384,FaceAttractiveness,2022.2.5,142.17349145020663,
images\ NASALTIP_006_M_F_N_A.png,0,0,0,8,7,25,690,57,,,,,2023-04-07_20h02.24.384,FaceAttractiveness,2022.2.5,142.17349145020663,
"images\ NASALTIP_136_M_M_N_A.png
",0,0,0,8,7,26,691,60,,,,,2023-04-07_20h02.24.384,FaceAttractiveness,2022.2.5,142.17349145020663,
images\FOREHEAD_CFD_AF_231_357_N.png,0,0,0,8,7,27,692,4,,,,,2023-04-07_20h02.24.384,FaceAttractiveness,2022.2.5,142.17349145020663,
images\ NASALTIP_CFD_AF_237_223_N.png,0,0,0,8,7,28,693,62,,,,,2023-04-07_20h02.24.384,FaceAttractiveness,2022.2.5,142.17349145020663,
images\ RCHEEK_035_M_F_N_A.png,0,0,0,8,7,29,694,77,,,,,2023-04-07_20h02.24.384,FaceAttractiveness,2022.2.5,142.17349145020663,
images\ RCHEEK_CFD_AF_231_357_N.png,0,0,0,8,7,30,695,80,,,,,2023-04-07_20h02.24.384,FaceAttractiveness,2022.2.5,142.17349145020663,
images\ NASALTIP_CFD_LM_201_057_N.png,0,0,0,8,7,31,696,70,,,,,2023-04-07_20h02.24.384,FaceAttractiveness,2022.2.5,142.17349145020663,
"images\ LIP_CFD_WF_002_004_N.png
",0,0,0,8,7,32,697,53,,,,,2023-04-07_20h02.24.384,FaceAttractiveness,2022.2.5,142.17349145020663,
images\ LIP_CFD_BF_224_002_N.png,0,0,0,8,7,33,698,47,,,,,2023-04-07_20h02.24.384,FaceAttractiveness,2022.2.5,142.17349145020663,
images\ RCHEEK_CFD_BF_224_002_N.png,0,0,0,8,7,34,699,85,,,,,2023-04-07_20h02.24.384,FaceAttractiveness,2022.2.5,142.17349145020663,
images\ RCHEEK_CFD_AF_245_143_N.png,0,0,0,8,7,35,700,82,,,,,2023-04-07_20h02.24.384,FaceAttractiveness,2022.2.5,142.17349145020663,
images\FOREHEAD_035_M_F_N_A.png,0,0,0,8,7,36,701,1,,,,,2023-04-07_20h02.24.384,FaceAttractiveness,2022.2.5,142.17349145020663,
images\ LIP_CFD_AF_245_143_N.png,0,0,0,8,7,37,702,44,,,,,2023-04-07_20h02.24.384,FaceAttractiveness,2022.2.5,142.17349145020663,
images\ LIP_CFD_LF_224_176_N.png,0,0,0,8,7,38,703,50,,,,,2023-04-07_20h02.24.384,FaceAttractiveness,2022.2.5,142.17349145020663,
images\FOREHEAD_CFD_AM_233_236_N.png,0,0,0,8,7,39,704,7,,,,,2023-04-07_20h02.24.384,FaceAttractiveness,2022.2.5,142.17349145020663,
images\ LCHEEK_CFD_BF_224_002_N.png,0,0,0,8,7,40,705,28,,,,,2023-04-07_20h02.24.384,FaceAttractiveness,2022.2.5,142.17349145020663,
images\FOREHEAD_087_M_M_N_A.png,0,0,0,8,7,41,706,2,,,,,2023-04-07_20h02.24.384,FaceAttractiveness,2022.2.5,142.17349145020663,
"images\ RCHEEK_CFD_AM_233_236_N.png
",0,0,0,8,7,42,707,83,,,,,2023-04-07_20h02.24.384,FaceAttractiveness,2022.2.5,142.17349145020663,
images\FOREHEAD_CFD_WF_200_099_N.png,0,0,0,8,7,43,708,16,,,,,2023-04-07_20h02.24.384,FaceAttractiveness,2022.2.5,142.17349145020663,
images\ LCHEEK_CFD_BM_213_134_N.png,0,0,0,8,7,44,709,29,,,,,2023-04-07_20h02.24.384,FaceAttractiveness,2022.2.5,142.17349145020663,
images\ LCHEEK_087_M_M_N_A.png,0,0,0,8,7,45,710,21,,,,,2023-04-07_20h02.24.384,FaceAttractiveness,2022.2.5,142.17349145020663,
images\ NASALTIP_CFD_BF_224_002_N.png,0,0,0,8,7,46,711,66,,,,,2023-04-07_20h02.24.384,FaceAttractiveness,2022.2.5,142.17349145020663,
images\ RCHEEK_087_M_M_N_A.png,0,0,0,8,7,47,712,78,,,,,2023-04-07_20h02.24.384,FaceAttractiveness,2022.2.5,142.17349145020663,
images\ NASALTIP_035_M_F_N_A.png,0,0,0,8,7,48,713,58,,,,,2023-04-07_20h02.24.384,FaceAttractiveness,2022.2.5,142.17349145020663,
images\ NASALTIP_CFD_LF_224_176_N.png,0,0,0,8,7,49,714,69,,,,,2023-04-07_20h02.24.384,FaceAttractiveness,2022.2.5,142.17349145020663,
images\ LIP_CFD_AF_231_357_N.png,0,0,0,8,7,50,715,42,,,,,2023-04-07_20h02.24.384,FaceAttractiveness,2022.2.5,142.17349145020663,
images\ NASALTIP_CFD_BM_213_134_N.png,0,0,0,8,7,51,716,67,,,,,2023-04-07_20h02.24.384,FaceAttractiveness,2022.2.5,142.17349145020663,
"images\ RCHEEK_136_M_M_N_A.png
",0,0,0,8,7,52,717,79,,,,,2023-04-07_20h02.24.384,FaceAttractiveness,2022.2.5,142.17349145020663,
images\ LCHEEK_CFD_WF_200_099_N.png,0,0,0,8,7,53,718,35,,,,,2023-04-07_20h02.24.384,FaceAttractiveness,2022.2.5,142.17349145020663,
images\FOREHEAD_CFD_LM_201_057_N.png,0,0,0,8,7,54,719,13,,,,,2023-04-07_20h02.24.384,FaceAttractiveness,2022.2.5,142.17349145020663,
images\ LIP_006_M_F_N_A.png,0,0,0,8,7,55,720,38,,,,,2023-04-07_20h02.24.384,FaceAttractiveness,2022.2.5,142.17349145020663,
images\ RCHEEK_CFD_WF_250_167_N.png,0,0,0,8,7,56,721,93,,,,,2023-04-07_20h02.24.384,FaceAttractiveness,2022.2.5,142.17349145020663,
images\FOREHEAD_CFD_BF_214_308_N.png,0,0,0,8,7,57,722,8,,,,,2023-04-07_20h02.24.384,FaceAttractiveness,2022.2.5,142.17349145020663,
images\ LIP_CFD_BM_213_134_N.png,0,0,0,8,7,58,723,48,,,,,2023-04-07_20h02.24.384,FaceAttractiveness,2022.2.5,142.17349145020663,
images\FOREHEAD_CFD_WM_212_097_N.png,0,0,0,8,7,59,724,18,,,,,2023-04-07_20h02.24.384,FaceAttractiveness,2022.2.5,142.17349145020663,
images\ LCHEEK_CFD_WF_250_167_N.png,0,0,0,8,7,60,725,36,,,,,2023-04-07_20h02.24.384,FaceAttractiveness,2022.2.5,142.17349145020663,
images\ NASALTIP_CFD_AF_245_143_N.png,0,0,0,8,7,61,726,63,,,,,2023-04-07_20h02.24.384,FaceAttractiveness,2022.2.5,142.17349145020663,
images\ RCHEEK_CFD_BM_213_134_N.png,0,0,0,8,7,62,727,86,,,,,2023-04-07_20h02.24.384,FaceAttractiveness,2022.2.5,142.17349145020663,
"images\ LCHEEK_136_M_M_N_A.png
",0,0,0,8,7,63,728,22,,,,,2023-04-07_20h02.24.384,FaceAttractiveness,2022.2.5,142.17349145020663,
images\ LIP_CFD_BF_214_308_N.png,0,0,0,8,7,64,729,46,,,,,2023-04-07_20h02.24.384,FaceAttractiveness,2022.2.5,142.17349145020663,
"images\ LIP_136_M_M_N_A.png
",0,0,0,8,7,65,730,41,,,,,2023-04-07_20h02.24.384,FaceAttractiveness,2022.2.5,142.17349145020663,
images\ LCHEEK_CFD_AF_237_223_N.png,0,0,0,8,7,66,731,24,,,,,2023-04-07_20h02.24.384,FaceAttractiveness,2022.2.5,142.17349145020663,
images\FOREHEAD_CFD_BM_234_172_N.png,0,0,0,8,7,67,732,11,,,,,2023-04-07_20h02.24.384,FaceAttractiveness,2022.2.5,142.17349145020663,
images\FOREHEAD_CFD_LF_224_176_N.png,0,0,0,8,7,68,733,12,,,,,2023-04-07_20h02.24.384,FaceAttractiveness,2022.2.5,142.17349145020663,
images\ RCHEEK_006_M_F_N_A.png,0,0,0,8,7,69,734,76,,,,,2023-04-07_20h02.24.384,FaceAttractiveness,2022.2.5,142.17349145020663,
images\ LCHEEK_CFD_LF_224_176_N.png,0,0,0,8,7,70,735,31,,,,,2023-04-07_20h02.24.384,FaceAttractiveness,2022.2.5,142.17349145020663,
images\ LCHEEK_CFD_LM_203_026_N.png,0,0,0,8,7,71,736,33,,,,,2023-04-07_20h02.24.384,FaceAttractiveness,2022.2.5,142.17349145020663,
images\ LCHEEK_035_M_F_N_A.png,0,0,0,8,7,72,737,20,,,,,2023-04-07_20h02.24.384,FaceAttractiveness,2022.2.5,142.17349145020663,
images\ LIP_CFD_LM_203_026_N.png,0,0,0,8,7,73,738,52,,,,,2023-04-07_20h02.24.384,FaceAttractiveness,2022.2.5,142.17349145020663,
images\ RCHEEK_CFD_LM_201_057_N.png,0,0,0,8,7,74,739,89,,,,,2023-04-07_20h02.24.384,FaceAttractiveness,2022.2.5,142.17349145020663,
images\ LCHEEK_CFD_AF_245_143_N.png,0,0,0,8,7,75,740,25,,,,,2023-04-07_20h02.24.384,FaceAttractiveness,2022.2.5,142.17349145020663,
"images\ LCHEEK_CFD_AM_233_236_N.png
",0,0,0,8,7,76,741,26,,,,,2023-04-07_20h02.24.384,FaceAttractiveness,2022.2.5,142.17349145020663,
images\FOREHEAD_136_M_M_N_A.png,0,0,0,8,7,77,742,3,,,,,2023-04-07_20h02.24.384,FaceAttractiveness,2022.2.5,142.17349145020663,
images\ RCHEEK_CFD_LM_203_026_N.png,0,0,0,8,7,78,743,90,,,,,2023-04-07_20h02.24.384,FaceAttractiveness,2022.2.5,142.17349145020663,
images\ LCHEEK_CFD_LM_201_057_N.png,0,0,0,8,7,79,744,32,,,,,2023-04-07_20h02.24.384,FaceAttractiveness,2022.2.5,142.17349145020663,
images\ LIP_CFD_WF_250_167_N.png,0,0,0,8,7,80,745,55,,,,,2023-04-07_20h02.24.384,FaceAttractiveness,2022.2.5,142.17349145020663,
images\FOREHEAD_CFD_BM_213_134_N.png,0,0,0,8,7,81,746,10,,,,,2023-04-07_20h02.24.384,FaceAttractiveness,2022.2.5,142.17349145020663,
images\FOREHEAD_CFD_WF_002_004_N.png,0,0,0,8,7,82,747,15,,,,,2023-04-07_20h02.24.384,FaceAttractiveness,2022.2.5,142.17349145020663,
images\FOREHEAD_CFD_WF_250_167_N.png,0,0,0,8,7,83,748,17,,,,,2023-04-07_20h02.24.384,FaceAttractiveness,2022.2.5,142.17349145020663,
images\FOREHEAD_006_M_F_N_A.png,0,0,0,8,7,84,749,0,,,,,2023-04-07_20h02.24.384,FaceAttractiveness,2022.2.5,142.17349145020663,
images\ LCHEEK_CFD_BF_214_308_N.png,0,0,0,8,7,85,750,27,,,,,2023-04-07_20h02.24.384,FaceAttractiveness,2022.2.5,142.17349145020663,
images\ LIP_087_M_M_N_A.png,0,0,0,8,7,86,751,40,,,,,2023-04-07_20h02.24.384,FaceAttractiveness,2022.2.5,142.17349145020663,
images\ LIP_CFD_LM_201_057_N.png,0,0,0,8,7,87,752,51,,,,,2023-04-07_20h02.24.384,FaceAttractiveness,2022.2.5,142.17349145020663,
images\ LIP_035_M_F_N_A.png,0,0,0,8,7,88,753,39,,,,,2023-04-07_20h02.24.384,FaceAttractiveness,2022.2.5,142.17349145020663,
images\ LCHEEK_006_M_F_N_A.png,0,0,0,8,7,89,754,19,,,,,2023-04-07_20h02.24.384,FaceAttractiveness,2022.2.5,142.17349145020663,
"images\ NASALTIP_CFD_AM_233_236_N.png
",0,0,0,8,7,90,755,64,,,,,2023-04-07_20h02.24.384,FaceAttractiveness,2022.2.5,142.17349145020663,
"images\ RCHEEK_CFD_WF_002_004_N.png
",0,0,0,8,7,91,756,91,,,,,2023-04-07_20h02.24.384,FaceAttractiveness,2022.2.5,142.17349145020663,
images\ NASALTIP_CFD_WM_212_097_N.png,0,0,0,8,7,92,757,75,,,,,2023-04-07_20h02.24.384,FaceAttractiveness,2022.2.5,142.17349145020663,
"images\ LIP_CFD_BM_234_172_N.png
",0,0,0,8,7,93,758,49,,,,,2023-04-07_20h02.24.384,FaceAttractiveness,2022.2.5,142.17349145020663,
images\ NASALTIP_CFD_AF_231_357_N.png,0,0,0,8,7,94,759,61,,,,,2023-04-07_20h02.24.384,FaceAttractiveness,2022.2.5,142.17349145020663,
