Task,LeftLabel,RightLabel,faceImages,RatingBlockOrder.thisRepN,RatingBlockOrder.thisTrialN,RatingBlockOrder.thisN,RatingBlockOrder.thisIndex,originalFaceTrials.thisRepN,originalFaceTrials.thisTrialN,originalFaceTrials.thisN,originalFaceTrials.thisIndex,face_image_q.started,slider_trustworthy.started,text_trustworthy.started,slider_aggressive.started,text_aggressive.started,Confirm.started,mouse_7.started,slider_trustworthy.response,slider_trustworthy.rt,slider_aggressive.response,slider_aggressive.rt,mouse_7.x,mouse_7.y,mouse_7.leftButton,mouse_7.midButton,mouse_7.rightButton,mouse_7.time,mouse_7.clicked_name,EndText.started,Name,Gender,Age,Ethnicity,date,expName,psychopyVersion,frameRate,
treatment,0% Never,100% Always,images\ LIP_006_M_F_N_A.png,0,0,0,0,0,0,0,38,,,,,,,,,,,,,,,,,,,,,,,,2023-04-07_19h41.14.656,FaceAttractiveness,2022.2.5,142.76210405936706,
treatment,0% Never,100% Always,images\ LCHEEK_CFD_WF_200_099_N.png,0,0,0,0,0,1,1,35,,,,,,,,,,,,,,,,,,,,,,,,2023-04-07_19h41.14.656,FaceAttractiveness,2022.2.5,142.76210405936706,
treatment,0% Never,100% Always,"images\ RCHEEK_CFD_WF_002_004_N.png
",0,0,0,0,0,2,2,91,,,,,,,,,,,,,,,,,,,,,,,,2023-04-07_19h41.14.656,FaceAttractiveness,2022.2.5,142.76210405936706,
treatment,0% Never,100% Always,images\FOREHEAD_087_M_M_N_A.png,0,0,0,0,0,3,3,2,,,,,,,,,,,,,,,,,,,,,,,,2023-04-07_19h41.14.656,FaceAttractiveness,2022.2.5,142.76210405936706,
treatment,0% Never,100% Always,images\ LCHEEK_CFD_AF_231_357_N.png,0,0,0,0,0,4,4,23,,,,,,,,,,,,,,,,,,,,,,,,2023-04-07_19h41.14.656,FaceAttractiveness,2022.2.5,142.76210405936706,
treatment,0% Never,100% Always,images\FOREHEAD_CFD_AF_231_357_N.png,0,0,0,0,0,5,5,4,,,,,,,,,,,,,,,,,,,,,,,,2023-04-07_19h41.14.656,FaceAttractiveness,2022.2.5,142.76210405936706,
treatment,0% Never,100% Always,images\FOREHEAD_CFD_WF_200_099_N.png,0,0,0,0,0,6,6,16,,,,,,,,,,,,,,,,,,,,,,,,2023-04-07_19h41.14.656,FaceAttractiveness,2022.2.5,142.76210405936706,
treatment,0% Never,100% Always,images\ LCHEEK_CFD_LF_224_176_N.png,0,0,0,0,0,7,7,31,,,,,,,,,,,,,,,,,,,,,,,,2023-04-07_19h41.14.656,FaceAttractiveness,2022.2.5,142.76210405936706,
treatment,0% Never,100% Always,images\ RCHEEK_CFD_WF_200_099_N.png,0,0,0,0,0,8,8,92,,,,,,,,,,,,,,,,,,,,,,,,2023-04-07_19h41.14.656,FaceAttractiveness,2022.2.5,142.76210405936706,
treatment,0% Never,100% Always,images\FOREHEAD_136_M_M_N_A.png,0,0,0,0,0,9,9,3,,,,,,,,,,,,,,,,,,,,,,,,2023-04-07_19h41.14.656,FaceAttractiveness,2022.2.5,142.76210405936706,
treatment,0% Never,100% Always,"images\ NASALTIP_136_M_M_N_A.png
",0,0,0,0,0,10,10,60,,,,,,,,,,,,,,,,,,,,,,,,2023-04-07_19h41.14.656,FaceAttractiveness,2022.2.5,142.76210405936706,
treatment,0% Never,100% Always,images\ RCHEEK_CFD_AF_237_223_N.png,0,0,0,0,0,11,11,81,,,,,,,,,,,,,,,,,,,,,,,,2023-04-07_19h41.14.656,FaceAttractiveness,2022.2.5,142.76210405936706,
treatment,0% Never,100% Always,images\ LCHEEK_CFD_LM_203_026_N.png,0,0,0,0,0,12,12,33,,,,,,,,,,,,,,,,,,,,,,,,2023-04-07_19h41.14.656,FaceAttractiveness,2022.2.5,142.76210405936706,
treatment,0% Never,100% Always,images\ LCHEEK_CFD_AF_245_143_N.png,0,0,0,0,0,13,13,25,,,,,,,,,,,,,,,,,,,,,,,,2023-04-07_19h41.14.656,FaceAttractiveness,2022.2.5,142.76210405936706,
treatment,0% Never,100% Always,images\ RCHEEK_CFD_BF_214_308_N.png,0,0,0,0,0,14,14,84,,,,,,,,,,,,,,,,,,,,,,,,2023-04-07_19h41.14.656,FaceAttractiveness,2022.2.5,142.76210405936706,
treatment,0% Never,100% Always,images\ LIP_CFD_WF_250_167_N.png,0,0,0,0,0,15,15,55,,,,,,,,,,,,,,,,,,,,,,,,2023-04-07_19h41.14.656,FaceAttractiveness,2022.2.5,142.76210405936706,
treatment,0% Never,100% Always,"images\ LIP_136_M_M_N_A.png
",0,0,0,0,0,16,16,41,,,,,,,,,,,,,,,,,,,,,,,,2023-04-07_19h41.14.656,FaceAttractiveness,2022.2.5,142.76210405936706,
treatment,0% Never,100% Always,images\ LIP_087_M_M_N_A.png,0,0,0,0,0,17,17,40,,,,,,,,,,,,,,,,,,,,,,,,2023-04-07_19h41.14.656,FaceAttractiveness,2022.2.5,142.76210405936706,
treatment,0% Never,100% Always,images\FOREHEAD_CFD_AF_237_223_N.png,0,0,0,0,0,18,18,5,,,,,,,,,,,,,,,,,,,,,,,,2023-04-07_19h41.14.656,FaceAttractiveness,2022.2.5,142.76210405936706,
treatment,0% Never,100% Always,images\ RCHEEK_CFD_LM_201_057_N.png,0,0,0,0,0,19,19,89,,,,,,,,,,,,,,,,,,,,,,,,2023-04-07_19h41.14.656,FaceAttractiveness,2022.2.5,142.76210405936706,
treatment,0% Never,100% Always,images\FOREHEAD_CFD_LM_203_026_N.png,0,0,0,0,0,20,20,14,,,,,,,,,,,,,,,,,,,,,,,,2023-04-07_19h41.14.656,FaceAttractiveness,2022.2.5,142.76210405936706,
treatment,0% Never,100% Always,"images\ LCHEEK_136_M_M_N_A.png
",0,0,0,0,0,21,21,22,,,,,,,,,,,,,,,,,,,,,,,,2023-04-07_19h41.14.656,FaceAttractiveness,2022.2.5,142.76210405936706,
treatment,0% Never,100% Always,images\ RCHEEK_CFD_LF_224_176_N.png,0,0,0,0,0,22,22,88,,,,,,,,,,,,,,,,,,,,,,,,2023-04-07_19h41.14.656,FaceAttractiveness,2022.2.5,142.76210405936706,
treatment,0% Never,100% Always,images\ LIP_CFD_LM_203_026_N.png,0,0,0,0,0,23,23,52,,,,,,,,,,,,,,,,,,,,,,,,2023-04-07_19h41.14.656,FaceAttractiveness,2022.2.5,142.76210405936706,
treatment,0% Never,100% Always,"images\ LIP_CFD_AM_233_236_N.png
",0,0,0,0,0,24,24,45,,,,,,,,,,,,,,,,,,,,,,,,2023-04-07_19h41.14.656,FaceAttractiveness,2022.2.5,142.76210405936706,
treatment,0% Never,100% Always,images\ NASALTIP_CFD_BF_224_002_N.png,0,0,0,0,0,25,25,66,,,,,,,,,,,,,,,,,,,,,,,,2023-04-07_19h41.14.656,FaceAttractiveness,2022.2.5,142.76210405936706,
treatment,0% Never,100% Always,images\ NASALTIP_CFD_AF_237_223_N.png,0,0,0,0,0,26,26,62,,,,,,,,,,,,,,,,,,,,,,,,2023-04-07_19h41.14.656,FaceAttractiveness,2022.2.5,142.76210405936706,
treatment,0% Never,100% Always,"images\ LIP_CFD_WF_002_004_N.png
",0,0,0,0,0,27,27,53,,,,,,,,,,,,,,,,,,,,,,,,2023-04-07_19h41.14.656,FaceAttractiveness,2022.2.5,142.76210405936706,
treatment,0% Never,100% Always,images\ NASALTIP_CFD_LM_201_057_N.png,0,0,0,0,0,28,28,70,,,,,,,,,,,,,,,,,,,,,,,,2023-04-07_19h41.14.656,FaceAttractiveness,2022.2.5,142.76210405936706,
treatment,0% Never,100% Always,images\ NASALTIP_CFD_LF_224_176_N.png,0,0,0,0,0,29,29,69,,,,,,,,,,,,,,,,,,,,,,,,2023-04-07_19h41.14.656,FaceAttractiveness,2022.2.5,142.76210405936706,
treatment,0% Never,100% Always,images\ RCHEEK_CFD_BM_213_134_N.png,0,0,0,0,0,30,30,86,,,,,,,,,,,,,,,,,,,,,,,,2023-04-07_19h41.14.656,FaceAttractiveness,2022.2.5,142.76210405936706,
treatment,0% Never,100% Always,images\ RCHEEK_035_M_F_N_A.png,0,0,0,0,0,31,31,77,,,,,,,,,,,,,,,,,,,,,,,,2023-04-07_19h41.14.656,FaceAttractiveness,2022.2.5,142.76210405936706,
treatment,0% Never,100% Always,images\ NASALTIP_006_M_F_N_A.png,0,0,0,0,0,32,32,57,,,,,,,,,,,,,,,,,,,,,,,,2023-04-07_19h41.14.656,FaceAttractiveness,2022.2.5,142.76210405936706,
treatment,0% Never,100% Always,images\FOREHEAD_CFD_BF_224_002_N.png,0,0,0,0,0,33,33,9,,,,,,,,,,,,,,,,,,,,,,,,2023-04-07_19h41.14.656,FaceAttractiveness,2022.2.5,142.76210405936706,
treatment,0% Never,100% Always,"images\ LCHEEK_CFD_AM_233_236_N.png
",0,0,0,0,0,34,34,26,,,,,,,,,,,,,,,,,,,,,,,,2023-04-07_19h41.14.656,FaceAttractiveness,2022.2.5,142.76210405936706,
treatment,0% Never,100% Always,images\ LIP_CFD_AF_237_223_N.png,0,0,0,0,0,35,35,43,,,,,,,,,,,,,,,,,,,,,,,,2023-04-07_19h41.14.656,FaceAttractiveness,2022.2.5,142.76210405936706,
treatment,0% Never,100% Always,images\ NASALTIP_087_M_M_N_A.png,0,0,0,0,0,36,36,59,,,,,,,,,,,,,,,,,,,,,,,,2023-04-07_19h41.14.656,FaceAttractiveness,2022.2.5,142.76210405936706,
treatment,0% Never,100% Always,"images\ RCHEEK_CFD_AM_233_236_N.png
",0,0,0,0,0,37,37,83,,,,,,,,,,,,,,,,,,,,,,,,2023-04-07_19h41.14.656,FaceAttractiveness,2022.2.5,142.76210405936706,
treatment,0% Never,100% Always,images\ LIP_035_M_F_N_A.png,0,0,0,0,0,38,38,39,,,,,,,,,,,,,,,,,,,,,,,,2023-04-07_19h41.14.656,FaceAttractiveness,2022.2.5,142.76210405936706,
treatment,0% Never,100% Always,images\FOREHEAD_CFD_AF_245_143_N.png,0,0,0,0,0,39,39,6,,,,,,,,,,,,,,,,,,,,,,,,2023-04-07_19h41.14.656,FaceAttractiveness,2022.2.5,142.76210405936706,
treatment,0% Never,100% Always,images\FOREHEAD_CFD_BF_214_308_N.png,0,0,0,0,0,40,40,8,,,,,,,,,,,,,,,,,,,,,,,,2023-04-07_19h41.14.656,FaceAttractiveness,2022.2.5,142.76210405936706,
treatment,0% Never,100% Always,images\ RCHEEK_087_M_M_N_A.png,0,0,0,0,0,41,41,78,,,,,,,,,,,,,,,,,,,,,,,,2023-04-07_19h41.14.656,FaceAttractiveness,2022.2.5,142.76210405936706,
treatment,0% Never,100% Always,images\ NASALTIP_CFD_AF_231_357_N.png,0,0,0,0,0,42,42,61,,,,,,,,,,,,,,,,,,,,,,,,2023-04-07_19h41.14.656,FaceAttractiveness,2022.2.5,142.76210405936706,
treatment,0% Never,100% Always,images\ RCHEEK_CFD_WM_212_097_N.png,0,0,0,0,0,43,43,94,,,,,,,,,,,,,,,,,,,,,,,,2023-04-07_19h41.14.656,FaceAttractiveness,2022.2.5,142.76210405936706,
treatment,0% Never,100% Always,images\ LIP_CFD_LF_224_176_N.png,0,0,0,0,0,44,44,50,,,,,,,,,,,,,,,,,,,,,,,,2023-04-07_19h41.14.656,FaceAttractiveness,2022.2.5,142.76210405936706,
treatment,0% Never,100% Always,images\FOREHEAD_CFD_WF_002_004_N.png,0,0,0,0,0,45,45,15,,,,,,,,,,,,,,,,,,,,,,,,2023-04-07_19h41.14.656,FaceAttractiveness,2022.2.5,142.76210405936706,
treatment,0% Never,100% Always,images\FOREHEAD_035_M_F_N_A.png,0,0,0,0,0,46,46,1,,,,,,,,,,,,,,,,,,,,,,,,2023-04-07_19h41.14.656,FaceAttractiveness,2022.2.5,142.76210405936706,
treatment,0% Never,100% Always,images\FOREHEAD_CFD_WM_212_097_N.png,0,0,0,0,0,47,47,18,,,,,,,,,,,,,,,,,,,,,,,,2023-04-07_19h41.14.656,FaceAttractiveness,2022.2.5,142.76210405936706,
treatment,0% Never,100% Always,images\ LCHEEK_CFD_BF_224_002_N.png,0,0,0,0,0,48,48,28,,,,,,,,,,,,,,,,,,,,,,,,2023-04-07_19h41.14.656,FaceAttractiveness,2022.2.5,142.76210405936706,
treatment,0% Never,100% Always,images\ LIP_CFD_BF_214_308_N.png,0,0,0,0,0,49,49,46,,,,,,,,,,,,,,,,,,,,,,,,2023-04-07_19h41.14.656,FaceAttractiveness,2022.2.5,142.76210405936706,
treatment,0% Never,100% Always,images\ LCHEEK_CFD_WM_212_097_N.png,0,0,0,0,0,50,50,37,,,,,,,,,,,,,,,,,,,,,,,,2023-04-07_19h41.14.656,FaceAttractiveness,2022.2.5,142.76210405936706,
treatment,0% Never,100% Always,images\ NASALTIP_035_M_F_N_A.png,0,0,0,0,0,51,51,58,,,,,,,,,,,,,,,,,,,,,,,,2023-04-07_19h41.14.656,FaceAttractiveness,2022.2.5,142.76210405936706,
treatment,0% Never,100% Always,images\FOREHEAD_CFD_WF_250_167_N.png,0,0,0,0,0,52,52,17,,,,,,,,,,,,,,,,,,,,,,,,2023-04-07_19h41.14.656,FaceAttractiveness,2022.2.5,142.76210405936706,
treatment,0% Never,100% Always,images\ NASALTIP_CFD_WF_200_099_N.png,0,0,0,0,0,53,53,73,,,,,,,,,,,,,,,,,,,,,,,,2023-04-07_19h41.14.656,FaceAttractiveness,2022.2.5,142.76210405936706,
treatment,0% Never,100% Always,"images\ RCHEEK_136_M_M_N_A.png
",0,0,0,0,0,54,54,79,,,,,,,,,,,,,,,,,,,,,,,,2023-04-07_19h41.14.656,FaceAttractiveness,2022.2.5,142.76210405936706,
treatment,0% Never,100% Always,images\ NASALTIP_CFD_AF_245_143_N.png,0,0,0,0,0,55,55,63,,,,,,,,,,,,,,,,,,,,,,,,2023-04-07_19h41.14.656,FaceAttractiveness,2022.2.5,142.76210405936706,
treatment,0% Never,100% Always,images\FOREHEAD_CFD_AM_233_236_N.png,0,0,0,0,0,56,56,7,,,,,,,,,,,,,,,,,,,,,,,,2023-04-07_19h41.14.656,FaceAttractiveness,2022.2.5,142.76210405936706,
treatment,0% Never,100% Always,images\ NASALTIP_CFD_WF_250_167_N.png,0,0,0,0,0,57,57,74,,,,,,,,,,,,,,,,,,,,,,,,2023-04-07_19h41.14.656,FaceAttractiveness,2022.2.5,142.76210405936706,
treatment,0% Never,100% Always,images\ NASALTIP_CFD_BM_213_134_N.png,0,0,0,0,0,58,58,67,,,,,,,,,,,,,,,,,,,,,,,,2023-04-07_19h41.14.656,FaceAttractiveness,2022.2.5,142.76210405936706,
treatment,0% Never,100% Always,images\ LIP_CFD_AF_231_357_N.png,0,0,0,0,0,59,59,42,,,,,,,,,,,,,,,,,,,,,,,,2023-04-07_19h41.14.656,FaceAttractiveness,2022.2.5,142.76210405936706,
treatment,0% Never,100% Always,images\ RCHEEK_CFD_LM_203_026_N.png,0,0,0,0,0,60,60,90,,,,,,,,,,,,,,,,,,,,,,,,2023-04-07_19h41.14.656,FaceAttractiveness,2022.2.5,142.76210405936706,
treatment,0% Never,100% Always,images\ LCHEEK_006_M_F_N_A.png,0,0,0,0,0,61,61,19,,,,,,,,,,,,,,,,,,,,,,,,2023-04-07_19h41.14.656,FaceAttractiveness,2022.2.5,142.76210405936706,
treatment,0% Never,100% Always,images\FOREHEAD_CFD_BM_234_172_N.png,0,0,0,0,0,62,62,11,,,,,,,,,,,,,,,,,,,,,,,,2023-04-07_19h41.14.656,FaceAttractiveness,2022.2.5,142.76210405936706,
treatment,0% Never,100% Always,images\ NASALTIP_CFD_BF_214_308_N.png,0,0,0,0,0,63,63,65,,,,,,,,,,,,,,,,,,,,,,,,2023-04-07_19h41.14.656,FaceAttractiveness,2022.2.5,142.76210405936706,
treatment,0% Never,100% Always,images\ NASALTIP_CFD_LM_203_026_N.png,0,0,0,0,0,64,64,71,,,,,,,,,,,,,,,,,,,,,,,,2023-04-07_19h41.14.656,FaceAttractiveness,2022.2.5,142.76210405936706,
treatment,0% Never,100% Always,images\FOREHEAD_CFD_BM_213_134_N.png,0,0,0,0,0,65,65,10,,,,,,,,,,,,,,,,,,,,,,,,2023-04-07_19h41.14.656,FaceAttractiveness,2022.2.5,142.76210405936706,
treatment,0% Never,100% Always,images\ LIP_CFD_WM_212_097_N.png,0,0,0,0,0,66,66,56,,,,,,,,,,,,,,,,,,,,,,,,2023-04-07_19h41.14.656,FaceAttractiveness,2022.2.5,142.76210405936706,
treatment,0% Never,100% Always,images\ RCHEEK_006_M_F_N_A.png,0,0,0,0,0,67,67,76,,,,,,,,,,,,,,,,,,,,,,,,2023-04-07_19h41.14.656,FaceAttractiveness,2022.2.5,142.76210405936706,
treatment,0% Never,100% Always,"images\ NASALTIP_CFD_AM_233_236_N.png
",0,0,0,0,0,68,68,64,,,,,,,,,,,,,,,,,,,,,,,,2023-04-07_19h41.14.656,FaceAttractiveness,2022.2.5,142.76210405936706,
treatment,0% Never,100% Always,images\FOREHEAD_CFD_LM_201_057_N.png,0,0,0,0,0,69,69,13,,,,,,,,,,,,,,,,,,,,,,,,2023-04-07_19h41.14.656,FaceAttractiveness,2022.2.5,142.76210405936706,
treatment,0% Never,100% Always,images\ LIP_CFD_BM_213_134_N.png,0,0,0,0,0,70,70,48,,,,,,,,,,,,,,,,,,,,,,,,2023-04-07_19h41.14.656,FaceAttractiveness,2022.2.5,142.76210405936706,
treatment,0% Never,100% Always,"images\ NASALTIP_CFD_WF_002_004_N.png
",0,0,0,0,0,71,71,72,,,,,,,,,,,,,,,,,,,,,,,,2023-04-07_19h41.14.656,FaceAttractiveness,2022.2.5,142.76210405936706,
treatment,0% Never,100% Always,images\ NASALTIP_CFD_WM_212_097_N.png,0,0,0,0,0,72,72,75,,,,,,,,,,,,,,,,,,,,,,,,2023-04-07_19h41.14.656,FaceAttractiveness,2022.2.5,142.76210405936706,
treatment,0% Never,100% Always,"images\ RCHEEK_CFD_BM_234_172_N.png
",0,0,0,0,0,73,73,87,,,,,,,,,,,,,,,,,,,,,,,,2023-04-07_19h41.14.656,FaceAttractiveness,2022.2.5,142.76210405936706,
treatment,0% Never,100% Always,images\ LIP_CFD_BF_224_002_N.png,0,0,0,0,0,74,74,47,,,,,,,,,,,,,,,,,,,,,,,,2023-04-07_19h41.14.656,FaceAttractiveness,2022.2.5,142.76210405936706,
treatment,0% Never,100% Always,"images\ NASALTIP_CFD_BM_234_172_N.png
",0,0,0,0,0,75,75,68,,,,,,,,,,,,,,,,,,,,,,,,2023-04-07_19h41.14.656,FaceAttractiveness,2022.2.5,142.76210405936706,
treatment,0% Never,100% Always,"images\ LCHEEK_CFD_BM_234_172_N.png
",0,0,0,0,0,76,76,30,,,,,,,,,,,,,,,,,,,,,,,,2023-04-07_19h41.14.656,FaceAttractiveness,2022.2.5,142.76210405936706,
treatment,0% Never,100% Always,images\ LIP_CFD_WF_200_099_N.png,0,0,0,0,0,77,77,54,,,,,,,,,,,,,,,,,,,,,,,,2023-04-07_19h41.14.656,FaceAttractiveness,2022.2.5,142.76210405936706,
treatment,0% Never,100% Always,"images\ LIP_CFD_BM_234_172_N.png
",0,0,0,0,0,78,78,49,,,,,,,,,,,,,,,,,,,,,,,,2023-04-07_19h41.14.656,FaceAttractiveness,2022.2.5,142.76210405936706,
treatment,0% Never,100% Always,images\ LCHEEK_CFD_BM_213_134_N.png,0,0,0,0,0,79,79,29,,,,,,,,,,,,,,,,,,,,,,,,2023-04-07_19h41.14.656,FaceAttractiveness,2022.2.5,142.76210405936706,
treatment,0% Never,100% Always,images\ LCHEEK_CFD_LM_201_057_N.png,0,0,0,0,0,80,80,32,,,,,,,,,,,,,,,,,,,,,,,,2023-04-07_19h41.14.656,FaceAttractiveness,2022.2.5,142.76210405936706,
treatment,0% Never,100% Always,images\ LCHEEK_CFD_AF_237_223_N.png,0,0,0,0,0,81,81,24,,,,,,,,,,,,,,,,,,,,,,,,2023-04-07_19h41.14.656,FaceAttractiveness,2022.2.5,142.76210405936706,
treatment,0% Never,100% Always,"images\ LCHEEK_CFD_WF_002_004_N.png
",0,0,0,0,0,82,82,34,,,,,,,,,,,,,,,,,,,,,,,,2023-04-07_19h41.14.656,FaceAttractiveness,2022.2.5,142.76210405936706,
treatment,0% Never,100% Always,images\ LCHEEK_035_M_F_N_A.png,0,0,0,0,0,83,83,20,,,,,,,,,,,,,,,,,,,,,,,,2023-04-07_19h41.14.656,FaceAttractiveness,2022.2.5,142.76210405936706,
treatment,0% Never,100% Always,images\ RCHEEK_CFD_AF_245_143_N.png,0,0,0,0,0,84,84,82,,,,,,,,,,,,,,,,,,,,,,,,2023-04-07_19h41.14.656,FaceAttractiveness,2022.2.5,142.76210405936706,
treatment,0% Never,100% Always,images\ LCHEEK_087_M_M_N_A.png,0,0,0,0,0,85,85,21,,,,,,,,,,,,,,,,,,,,,,,,2023-04-07_19h41.14.656,FaceAttractiveness,2022.2.5,142.76210405936706,
treatment,0% Never,100% Always,images\ RCHEEK_CFD_AF_231_357_N.png,0,0,0,0,0,86,86,80,,,,,,,,,,,,,,,,,,,,,,,,2023-04-07_19h41.14.656,FaceAttractiveness,2022.2.5,142.76210405936706,
treatment,0% Never,100% Always,images\ LCHEEK_CFD_WF_250_167_N.png,0,0,0,0,0,87,87,36,,,,,,,,,,,,,,,,,,,,,,,,2023-04-07_19h41.14.656,FaceAttractiveness,2022.2.5,142.76210405936706,
treatment,0% Never,100% Always,images\ RCHEEK_CFD_BF_224_002_N.png,0,0,0,0,0,88,88,85,,,,,,,,,,,,,,,,,,,,,,,,2023-04-07_19h41.14.656,FaceAttractiveness,2022.2.5,142.76210405936706,
treatment,0% Never,100% Always,images\ LCHEEK_CFD_BF_214_308_N.png,0,0,0,0,0,89,89,27,,,,,,,,,,,,,,,,,,,,,,,,2023-04-07_19h41.14.656,FaceAttractiveness,2022.2.5,142.76210405936706,
treatment,0% Never,100% Always,images\ LIP_CFD_LM_201_057_N.png,0,0,0,0,0,90,90,51,,,,,,,,,,,,,,,,,,,,,,,,2023-04-07_19h41.14.656,FaceAttractiveness,2022.2.5,142.76210405936706,
treatment,0% Never,100% Always,images\ RCHEEK_CFD_WF_250_167_N.png,0,0,0,0,0,91,91,93,,,,,,,,,,,,,,,,,,,,,,,,2023-04-07_19h41.14.656,FaceAttractiveness,2022.2.5,142.76210405936706,
treatment,0% Never,100% Always,images\FOREHEAD_006_M_F_N_A.png,0,0,0,0,0,92,92,0,,,,,,,,,,,,,,,,,,,,,,,,2023-04-07_19h41.14.656,FaceAttractiveness,2022.2.5,142.76210405936706,
treatment,0% Never,100% Always,images\ LIP_CFD_AF_245_143_N.png,0,0,0,0,0,93,93,44,,,,,,,,,,,,,,,,,,,,,,,,2023-04-07_19h41.14.656,FaceAttractiveness,2022.2.5,142.76210405936706,
treatment,0% Never,100% Always,images\FOREHEAD_CFD_LF_224_176_N.png,0,0,0,0,0,94,94,12,,,,,,,,,,,,,,,,,,,,,,,,2023-04-07_19h41.14.656,FaceAttractiveness,2022.2.5,142.76210405936706,
treatment,0% Never,100% Always,images\FOREHEAD_CFD_WF_200_099_N.png,0,0,0,0,1,0,95,16,,,,,,,,,,,,,,,,,,,,,,,,2023-04-07_19h41.14.656,FaceAttractiveness,2022.2.5,142.76210405936706,
treatment,0% Never,100% Always,images\FOREHEAD_CFD_WF_250_167_N.png,0,0,0,0,1,1,96,17,,,,,,,,,,,,,,,,,,,,,,,,2023-04-07_19h41.14.656,FaceAttractiveness,2022.2.5,142.76210405936706,
treatment,0% Never,100% Always,images\ LCHEEK_CFD_WF_200_099_N.png,0,0,0,0,1,2,97,35,,,,,,,,,,,,,,,,,,,,,,,,2023-04-07_19h41.14.656,FaceAttractiveness,2022.2.5,142.76210405936706,
treatment,0% Never,100% Always,images\ LCHEEK_CFD_AF_231_357_N.png,0,0,0,0,1,3,98,23,,,,,,,,,,,,,,,,,,,,,,,,2023-04-07_19h41.14.656,FaceAttractiveness,2022.2.5,142.76210405936706,
treatment,0% Never,100% Always,images\ NASALTIP_035_M_F_N_A.png,0,0,0,0,1,4,99,58,,,,,,,,,,,,,,,,,,,,,,,,2023-04-07_19h41.14.656,FaceAttractiveness,2022.2.5,142.76210405936706,
treatment,0% Never,100% Always,images\ LIP_CFD_BM_213_134_N.png,0,0,0,0,1,5,100,48,,,,,,,,,,,,,,,,,,,,,,,,2023-04-07_19h41.14.656,FaceAttractiveness,2022.2.5,142.76210405936706,
treatment,0% Never,100% Always,"images\ LCHEEK_CFD_AM_233_236_N.png
",0,0,0,0,1,6,101,26,,,,,,,,,,,,,,,,,,,,,,,,2023-04-07_19h41.14.656,FaceAttractiveness,2022.2.5,142.76210405936706,
treatment,0% Never,100% Always,"images\ RCHEEK_CFD_BM_234_172_N.png
",0,0,0,0,1,7,102,87,,,,,,,,,,,,,,,,,,,,,,,,2023-04-07_19h41.14.656,FaceAttractiveness,2022.2.5,142.76210405936706,
treatment,0% Never,100% Always,images\ LIP_CFD_LM_201_057_N.png,0,0,0,0,1,8,103,51,,,,,,,,,,,,,,,,,,,,,,,,2023-04-07_19h41.14.656,FaceAttractiveness,2022.2.5,142.76210405936706,
treatment,0% Never,100% Always,images\ LIP_CFD_WF_250_167_N.png,0,0,0,0,1,9,104,55,,,,,,,,,,,,,,,,,,,,,,,,2023-04-07_19h41.14.656,FaceAttractiveness,2022.2.5,142.76210405936706,
treatment,0% Never,100% Always,images\ NASALTIP_CFD_AF_245_143_N.png,0,0,0,0,1,10,105,63,,,,,,,,,,,,,,,,,,,,,,,,2023-04-07_19h41.14.656,FaceAttractiveness,2022.2.5,142.76210405936706,
treatment,0% Never,100% Always,images\ LIP_035_M_F_N_A.png,0,0,0,0,1,11,106,39,,,,,,,,,,,,,,,,,,,,,,,,2023-04-07_19h41.14.656,FaceAttractiveness,2022.2.5,142.76210405936706,
treatment,0% Never,100% Always,images\ NASALTIP_006_M_F_N_A.png,0,0,0,0,1,12,107,57,,,,,,,,,,,,,,,,,,,,,,,,2023-04-07_19h41.14.656,FaceAttractiveness,2022.2.5,142.76210405936706,
treatment,0% Never,100% Always,images\FOREHEAD_CFD_AM_233_236_N.png,0,0,0,0,1,13,108,7,,,,,,,,,,,,,,,,,,,,,,,,2023-04-07_19h41.14.656,FaceAttractiveness,2022.2.5,142.76210405936706,
treatment,0% Never,100% Always,images\ LIP_CFD_BF_214_308_N.png,0,0,0,0,1,14,109,46,,,,,,,,,,,,,,,,,,,,,,,,2023-04-07_19h41.14.656,FaceAttractiveness,2022.2.5,142.76210405936706,
treatment,0% Never,100% Always,images\ LCHEEK_087_M_M_N_A.png,0,0,0,0,1,15,110,21,,,,,,,,,,,,,,,,,,,,,,,,2023-04-07_19h41.14.656,FaceAttractiveness,2022.2.5,142.76210405936706,
treatment,0% Never,100% Always,"images\ LCHEEK_CFD_WF_002_004_N.png
",0,0,0,0,1,16,111,34,,,,,,,,,,,,,,,,,,,,,,,,2023-04-07_19h41.14.656,FaceAttractiveness,2022.2.5,142.76210405936706,
treatment,0% Never,100% Always,images\ RCHEEK_CFD_BF_214_308_N.png,0,0,0,0,1,17,112,84,,,,,,,,,,,,,,,,,,,,,,,,2023-04-07_19h41.14.656,FaceAttractiveness,2022.2.5,142.76210405936706,
treatment,0% Never,100% Always,images\ RCHEEK_CFD_WM_212_097_N.png,0,0,0,0,1,18,113,94,,,,,,,,,,,,,,,,,,,,,,,,2023-04-07_19h41.14.656,FaceAttractiveness,2022.2.5,142.76210405936706,
treatment,0% Never,100% Always,images\ NASALTIP_CFD_WF_200_099_N.png,0,0,0,0,1,19,114,73,,,,,,,,,,,,,,,,,,,,,,,,2023-04-07_19h41.14.656,FaceAttractiveness,2022.2.5,142.76210405936706,
treatment,0% Never,100% Always,images\FOREHEAD_CFD_AF_231_357_N.png,0,0,0,0,1,20,115,4,,,,,,,,,,,,,,,,,,,,,,,,2023-04-07_19h41.14.656,FaceAttractiveness,2022.2.5,142.76210405936706,
treatment,0% Never,100% Always,images\ RCHEEK_CFD_WF_200_099_N.png,0,0,0,0,1,21,116,92,,,,,,,,,,,,,,,,,,,,,,,,2023-04-07_19h41.14.656,FaceAttractiveness,2022.2.5,142.76210405936706,
treatment,0% Never,100% Always,images\FOREHEAD_006_M_F_N_A.png,0,0,0,0,1,22,117,0,,,,,,,,,,,,,,,,,,,,,,,,2023-04-07_19h41.14.656,FaceAttractiveness,2022.2.5,142.76210405936706,
treatment,0% Never,100% Always,"images\ NASALTIP_CFD_WF_002_004_N.png
",0,0,0,0,1,23,118,72,,,,,,,,,,,,,,,,,,,,,,,,2023-04-07_19h41.14.656,FaceAttractiveness,2022.2.5,142.76210405936706,
treatment,0% Never,100% Always,images\ RCHEEK_CFD_AF_231_357_N.png,0,0,0,0,1,24,119,80,,,,,,,,,,,,,,,,,,,,,,,,2023-04-07_19h41.14.656,FaceAttractiveness,2022.2.5,142.76210405936706,
treatment,0% Never,100% Always,images\ RCHEEK_CFD_BM_213_134_N.png,0,0,0,0,1,25,120,86,,,,,,,,,,,,,,,,,,,,,,,,2023-04-07_19h41.14.656,FaceAttractiveness,2022.2.5,142.76210405936706,
treatment,0% Never,100% Always,images\ RCHEEK_CFD_AF_237_223_N.png,0,0,0,0,1,26,121,81,,,,,,,,,,,,,,,,,,,,,,,,2023-04-07_19h41.14.656,FaceAttractiveness,2022.2.5,142.76210405936706,
treatment,0% Never,100% Always,images\ NASALTIP_087_M_M_N_A.png,0,0,0,0,1,27,122,59,,,,,,,,,,,,,,,,,,,,,,,,2023-04-07_19h41.14.656,FaceAttractiveness,2022.2.5,142.76210405936706,
treatment,0% Never,100% Always,images\ LIP_CFD_AF_245_143_N.png,0,0,0,0,1,28,123,44,,,,,,,,,,,,,,,,,,,,,,,,2023-04-07_19h41.14.656,FaceAttractiveness,2022.2.5,142.76210405936706,
treatment,0% Never,100% Always,images\FOREHEAD_CFD_LM_203_026_N.png,0,0,0,0,1,29,124,14,,,,,,,,,,,,,,,,,,,,,,,,2023-04-07_19h41.14.656,FaceAttractiveness,2022.2.5,142.76210405936706,
treatment,0% Never,100% Always,images\ RCHEEK_CFD_AF_245_143_N.png,0,0,0,0,1,30,125,82,,,,,,,,,,,,,,,,,,,,,,,,2023-04-07_19h41.14.656,FaceAttractiveness,2022.2.5,142.76210405936706,
treatment,0% Never,100% Always,"images\ RCHEEK_CFD_AM_233_236_N.png
",0,0,0,0,1,31,126,83,,,,,,,,,,,,,,,,,,,,,,,,2023-04-07_19h41.14.656,FaceAttractiveness,2022.2.5,142.76210405936706,
treatment,0% Never,100% Always,images\FOREHEAD_CFD_LM_201_057_N.png,0,0,0,0,1,32,127,13,,,,,,,,,,,,,,,,,,,,,,,,2023-04-07_19h41.14.656,FaceAttractiveness,2022.2.5,142.76210405936706,
treatment,0% Never,100% Always,images\ LCHEEK_006_M_F_N_A.png,0,0,0,0,1,33,128,19,,,,,,,,,,,,,,,,,,,,,,,,2023-04-07_19h41.14.656,FaceAttractiveness,2022.2.5,142.76210405936706,
treatment,0% Never,100% Always,"images\ LIP_CFD_BM_234_172_N.png
",0,0,0,0,1,34,129,49,,,,,,,,,,,,,,,,,,,,,,,,2023-04-07_19h41.14.656,FaceAttractiveness,2022.2.5,142.76210405936706,
treatment,0% Never,100% Always,"images\ LIP_CFD_WF_002_004_N.png
",0,0,0,0,1,35,130,53,,,,,,,,,,,,,,,,,,,,,,,,2023-04-07_19h41.14.656,FaceAttractiveness,2022.2.5,142.76210405936706,
treatment,0% Never,100% Always,images\ RCHEEK_CFD_LF_224_176_N.png,0,0,0,0,1,36,131,88,,,,,,,,,,,,,,,,,,,,,,,,2023-04-07_19h41.14.656,FaceAttractiveness,2022.2.5,142.76210405936706,
treatment,0% Never,100% Always,images\ RCHEEK_087_M_M_N_A.png,0,0,0,0,1,37,132,78,,,,,,,,,,,,,,,,,,,,,,,,2023-04-07_19h41.14.656,FaceAttractiveness,2022.2.5,142.76210405936706,
treatment,0% Never,100% Always,images\ NASALTIP_CFD_LM_203_026_N.png,0,0,0,0,1,38,133,71,,,,,,,,,,,,,,,,,,,,,,,,2023-04-07_19h41.14.656,FaceAttractiveness,2022.2.5,142.76210405936706,
treatment,0% Never,100% Always,images\ RCHEEK_CFD_LM_201_057_N.png,0,0,0,0,1,39,134,89,,,,,,,,,,,,,,,,,,,,,,,,2023-04-07_19h41.14.656,FaceAttractiveness,2022.2.5,142.76210405936706,
treatment,0% Never,100% Always,"images\ NASALTIP_CFD_AM_233_236_N.png
",0,0,0,0,1,40,135,64,,,,,,,,,,,,,,,,,,,,,,,,2023-04-07_19h41.14.656,FaceAttractiveness,2022.2.5,142.76210405936706,
treatment,0% Never,100% Always,images\ NASALTIP_CFD_LF_224_176_N.png,0,0,0,0,1,41,136,69,,,,,,,,,,,,,,,,,,,,,,,,2023-04-07_19h41.14.656,FaceAttractiveness,2022.2.5,142.76210405936706,
treatment,0% Never,100% Always,images\ LIP_CFD_AF_231_357_N.png,0,0,0,0,1,42,137,42,,,,,,,,,,,,,,,,,,,,,,,,2023-04-07_19h41.14.656,FaceAttractiveness,2022.2.5,142.76210405936706,
treatment,0% Never,100% Always,images\ LIP_006_M_F_N_A.png,0,0,0,0,1,43,138,38,,,,,,,,,,,,,,,,,,,,,,,,2023-04-07_19h41.14.656,FaceAttractiveness,2022.2.5,142.76210405936706,
treatment,0% Never,100% Always,images\ RCHEEK_006_M_F_N_A.png,0,0,0,0,1,44,139,76,,,,,,,,,,,,,,,,,,,,,,,,2023-04-07_19h41.14.656,FaceAttractiveness,2022.2.5,142.76210405936706,
treatment,0% Never,100% Always,images\ LIP_087_M_M_N_A.png,0,0,0,0,1,45,140,40,,,,,,,,,,,,,,,,,,,,,,,,2023-04-07_19h41.14.656,FaceAttractiveness,2022.2.5,142.76210405936706,
treatment,0% Never,100% Always,images\ LIP_CFD_AF_237_223_N.png,0,0,0,0,1,46,141,43,,,,,,,,,,,,,,,,,,,,,,,,2023-04-07_19h41.14.656,FaceAttractiveness,2022.2.5,142.76210405936706,
treatment,0% Never,100% Always,images\ NASALTIP_CFD_WM_212_097_N.png,0,0,0,0,1,47,142,75,,,,,,,,,,,,,,,,,,,,,,,,2023-04-07_19h41.14.656,FaceAttractiveness,2022.2.5,142.76210405936706,
treatment,0% Never,100% Always,images\ LIP_CFD_BF_224_002_N.png,0,0,0,0,1,48,143,47,,,,,,,,,,,,,,,,,,,,,,,,2023-04-07_19h41.14.656,FaceAttractiveness,2022.2.5,142.76210405936706,
treatment,0% Never,100% Always,images\FOREHEAD_035_M_F_N_A.png,0,0,0,0,1,49,144,1,,,,,,,,,,,,,,,,,,,,,,,,2023-04-07_19h41.14.656,FaceAttractiveness,2022.2.5,142.76210405936706,
treatment,0% Never,100% Always,images\FOREHEAD_CFD_AF_245_143_N.png,0,0,0,0,1,50,145,6,,,,,,,,,,,,,,,,,,,,,,,,2023-04-07_19h41.14.656,FaceAttractiveness,2022.2.5,142.76210405936706,
treatment,0% Never,100% Always,images\ LCHEEK_CFD_LM_201_057_N.png,0,0,0,0,1,51,146,32,,,,,,,,,,,,,,,,,,,,,,,,2023-04-07_19h41.14.656,FaceAttractiveness,2022.2.5,142.76210405936706,
treatment,0% Never,100% Always,"images\ RCHEEK_136_M_M_N_A.png
",0,0,0,0,1,52,147,79,,,,,,,,,,,,,,,,,,,,,,,,2023-04-07_19h41.14.656,FaceAttractiveness,2022.2.5,142.76210405936706,
treatment,0% Never,100% Always,images\ NASALTIP_CFD_AF_231_357_N.png,0,0,0,0,1,53,148,61,,,,,,,,,,,,,,,,,,,,,,,,2023-04-07_19h41.14.656,FaceAttractiveness,2022.2.5,142.76210405936706,
treatment,0% Never,100% Always,images\ RCHEEK_CFD_LM_203_026_N.png,0,0,0,0,1,54,149,90,,,,,,,,,,,,,,,,,,,,,,,,2023-04-07_19h41.14.656,FaceAttractiveness,2022.2.5,142.76210405936706,
treatment,0% Never,100% Always,images\ RCHEEK_035_M_F_N_A.png,0,0,0,0,1,55,150,77,,,,,,,,,,,,,,,,,,,,,,,,2023-04-07_19h41.14.656,FaceAttractiveness,2022.2.5,142.76210405936706,
treatment,0% Never,100% Always,images\FOREHEAD_CFD_WM_212_097_N.png,0,0,0,0,1,56,151,18,,,,,,,,,,,,,,,,,,,,,,,,2023-04-07_19h41.14.656,FaceAttractiveness,2022.2.5,142.76210405936706,
treatment,0% Never,100% Always,images\ LCHEEK_CFD_LF_224_176_N.png,0,0,0,0,1,57,152,31,,,,,,,,,,,,,,,,,,,,,,,,2023-04-07_19h41.14.656,FaceAttractiveness,2022.2.5,142.76210405936706,
treatment,0% Never,100% Always,images\ LIP_CFD_LM_203_026_N.png,0,0,0,0,1,58,153,52,,,,,,,,,,,,,,,,,,,,,,,,2023-04-07_19h41.14.656,FaceAttractiveness,2022.2.5,142.76210405936706,
treatment,0% Never,100% Always,images\FOREHEAD_CFD_BM_234_172_N.png,0,0,0,0,1,59,154,11,,,,,,,,,,,,,,,,,,,,,,,,2023-04-07_19h41.14.656,FaceAttractiveness,2022.2.5,142.76210405936706,
treatment,0% Never,100% Always,images\FOREHEAD_CFD_BF_214_308_N.png,0,0,0,0,1,60,155,8,,,,,,,,,,,,,,,,,,,,,,,,2023-04-07_19h41.14.656,FaceAttractiveness,2022.2.5,142.76210405936706,
treatment,0% Never,100% Always,images\ LIP_CFD_WF_200_099_N.png,0,0,0,0,1,61,156,54,,,,,,,,,,,,,,,,,,,,,,,,2023-04-07_19h41.14.656,FaceAttractiveness,2022.2.5,142.76210405936706,
treatment,0% Never,100% Always,"images\ LCHEEK_136_M_M_N_A.png
",0,0,0,0,1,62,157,22,,,,,,,,,,,,,,,,,,,,,,,,2023-04-07_19h41.14.656,FaceAttractiveness,2022.2.5,142.76210405936706,
treatment,0% Never,100% Always,"images\ RCHEEK_CFD_WF_002_004_N.png
",0,0,0,0,1,63,158,91,,,,,,,,,,,,,,,,,,,,,,,,2023-04-07_19h41.14.656,FaceAttractiveness,2022.2.5,142.76210405936706,
treatment,0% Never,100% Always,"images\ LIP_136_M_M_N_A.png
",0,0,0,0,1,64,159,41,,,,,,,,,,,,,,,,,,,,,,,,2023-04-07_19h41.14.656,FaceAttractiveness,2022.2.5,142.76210405936706,
treatment,0% Never,100% Always,images\ NASALTIP_CFD_WF_250_167_N.png,0,0,0,0,1,65,160,74,,,,,,,,,,,,,,,,,,,,,,,,2023-04-07_19h41.14.656,FaceAttractiveness,2022.2.5,142.76210405936706,
treatment,0% Never,100% Always,images\ LIP_CFD_WM_212_097_N.png,0,0,0,0,1,66,161,56,,,,,,,,,,,,,,,,,,,,,,,,2023-04-07_19h41.14.656,FaceAttractiveness,2022.2.5,142.76210405936706,
treatment,0% Never,100% Always,"images\ NASALTIP_136_M_M_N_A.png
",0,0,0,0,1,67,162,60,,,,,,,,,,,,,,,,,,,,,,,,2023-04-07_19h41.14.656,FaceAttractiveness,2022.2.5,142.76210405936706,
treatment,0% Never,100% Always,images\ LCHEEK_CFD_WM_212_097_N.png,0,0,0,0,1,68,163,37,,,,,,,,,,,,,,,,,,,,,,,,2023-04-07_19h41.14.656,FaceAttractiveness,2022.2.5,142.76210405936706,
treatment,0% Never,100% Always,images\ RCHEEK_CFD_BF_224_002_N.png,0,0,0,0,1,69,164,85,,,,,,,,,,,,,,,,,,,,,,,,2023-04-07_19h41.14.656,FaceAttractiveness,2022.2.5,142.76210405936706,
treatment,0% Never,100% Always,images\ LCHEEK_CFD_BM_213_134_N.png,0,0,0,0,1,70,165,29,,,,,,,,,,,,,,,,,,,,,,,,2023-04-07_19h41.14.656,FaceAttractiveness,2022.2.5,142.76210405936706,
treatment,0% Never,100% Always,images\ NASALTIP_CFD_BM_213_134_N.png,0,0,0,0,1,71,166,67,,,,,,,,,,,,,,,,,,,,,,,,2023-04-07_19h41.14.656,FaceAttractiveness,2022.2.5,142.76210405936706,
treatment,0% Never,100% Always,"images\ LIP_CFD_AM_233_236_N.png
",0,0,0,0,1,72,167,45,,,,,,,,,,,,,,,,,,,,,,,,2023-04-07_19h41.14.656,FaceAttractiveness,2022.2.5,142.76210405936706,
treatment,0% Never,100% Always,images\ LCHEEK_CFD_WF_250_167_N.png,0,0,0,0,1,73,168,36,,,,,,,,,,,,,,,,,,,,,,,,2023-04-07_19h41.14.656,FaceAttractiveness,2022.2.5,142.76210405936706,
treatment,0% Never,100% Always,images\ LIP_CFD_LF_224_176_N.png,0,0,0,0,1,74,169,50,,,,,,,,,,,,,,,,,,,,,,,,2023-04-07_19h41.14.656,FaceAttractiveness,2022.2.5,142.76210405936706,
treatment,0% Never,100% Always,images\FOREHEAD_CFD_WF_002_004_N.png,0,0,0,0,1,75,170,15,,,,,,,,,,,,,,,,,,,,,,,,2023-04-07_19h41.14.656,FaceAttractiveness,2022.2.5,142.76210405936706,
treatment,0% Never,100% Always,images\ NASALTIP_CFD_BF_224_002_N.png,0,0,0,0,1,76,171,66,,,,,,,,,,,,,,,,,,,,,,,,2023-04-07_19h41.14.656,FaceAttractiveness,2022.2.5,142.76210405936706,
treatment,0% Never,100% Always,images\ NASALTIP_CFD_AF_237_223_N.png,0,0,0,0,1,77,172,62,,,,,,,,,,,,,,,,,,,,,,,,2023-04-07_19h41.14.656,FaceAttractiveness,2022.2.5,142.76210405936706,
treatment,0% Never,100% Always,images\FOREHEAD_136_M_M_N_A.png,0,0,0,0,1,78,173,3,,,,,,,,,,,,,,,,,,,,,,,,2023-04-07_19h41.14.656,FaceAttractiveness,2022.2.5,142.76210405936706,
treatment,0% Never,100% Always,images\FOREHEAD_CFD_BM_213_134_N.png,0,0,0,0,1,79,174,10,,,,,,,,,,,,,,,,,,,,,,,,2023-04-07_19h41.14.656,FaceAttractiveness,2022.2.5,142.76210405936706,
treatment,0% Never,100% Always,images\FOREHEAD_CFD_BF_224_002_N.png,0,0,0,0,1,80,175,9,,,,,,,,,,,,,,,,,,,,,,,,2023-04-07_19h41.14.656,FaceAttractiveness,2022.2.5,142.76210405936706,
treatment,0% Never,100% Always,images\ LCHEEK_035_M_F_N_A.png,0,0,0,0,1,81,176,20,,,,,,,,,,,,,,,,,,,,,,,,2023-04-07_19h41.14.656,FaceAttractiveness,2022.2.5,142.76210405936706,
treatment,0% Never,100% Always,images\ NASALTIP_CFD_BF_214_308_N.png,0,0,0,0,1,82,177,65,,,,,,,,,,,,,,,,,,,,,,,,2023-04-07_19h41.14.656,FaceAttractiveness,2022.2.5,142.76210405936706,
treatment,0% Never,100% Always,images\ NASALTIP_CFD_LM_201_057_N.png,0,0,0,0,1,83,178,70,,,,,,,,,,,,,,,,,,,,,,,,2023-04-07_19h41.14.656,FaceAttractiveness,2022.2.5,142.76210405936706,
treatment,0% Never,100% Always,images\FOREHEAD_CFD_LF_224_176_N.png,0,0,0,0,1,84,179,12,,,,,,,,,,,,,,,,,,,,,,,,2023-04-07_19h41.14.656,FaceAttractiveness,2022.2.5,142.76210405936706,
treatment,0% Never,100% Always,images\ LCHEEK_CFD_LM_203_026_N.png,0,0,0,0,1,85,180,33,,,,,,,,,,,,,,,,,,,,,,,,2023-04-07_19h41.14.656,FaceAttractiveness,2022.2.5,142.76210405936706,
treatment,0% Never,100% Always,images\ RCHEEK_CFD_WF_250_167_N.png,0,0,0,0,1,86,181,93,,,,,,,,,,,,,,,,,,,,,,,,2023-04-07_19h41.14.656,FaceAttractiveness,2022.2.5,142.76210405936706,
treatment,0% Never,100% Always,images\FOREHEAD_087_M_M_N_A.png,0,0,0,0,1,87,182,2,,,,,,,,,,,,,,,,,,,,,,,,2023-04-07_19h41.14.656,FaceAttractiveness,2022.2.5,142.76210405936706,
treatment,0% Never,100% Always,"images\ LCHEEK_CFD_BM_234_172_N.png
",0,0,0,0,1,88,183,30,,,,,,,,,,,,,,,,,,,,,,,,2023-04-07_19h41.14.656,FaceAttractiveness,2022.2.5,142.76210405936706,
treatment,0% Never,100% Always,images\FOREHEAD_CFD_AF_237_223_N.png,0,0,0,0,1,89,184,5,,,,,,,,,,,,,,,,,,,,,,,,2023-04-07_19h41.14.656,FaceAttractiveness,2022.2.5,142.76210405936706,
treatment,0% Never,100% Always,images\ LCHEEK_CFD_AF_245_143_N.png,0,0,0,0,1,90,185,25,,,,,,,,,,,,,,,,,,,,,,,,2023-04-07_19h41.14.656,FaceAttractiveness,2022.2.5,142.76210405936706,
treatment,0% Never,100% Always,"images\ NASALTIP_CFD_BM_234_172_N.png
",0,0,0,0,1,91,186,68,,,,,,,,,,,,,,,,,,,,,,,,2023-04-07_19h41.14.656,FaceAttractiveness,2022.2.5,142.76210405936706,
treatment,0% Never,100% Always,images\ LCHEEK_CFD_AF_237_223_N.png,0,0,0,0,1,92,187,24,,,,,,,,,,,,,,,,,,,,,,,,2023-04-07_19h41.14.656,FaceAttractiveness,2022.2.5,142.76210405936706,
treatment,0% Never,100% Always,images\ LCHEEK_CFD_BF_224_002_N.png,0,0,0,0,1,93,188,28,,,,,,,,,,,,,,,,,,,,,,,,2023-04-07_19h41.14.656,FaceAttractiveness,2022.2.5,142.76210405936706,
treatment,0% Never,100% Always,images\ LCHEEK_CFD_BF_214_308_N.png,0,0,0,0,1,94,189,27,,,,,,,,,,,,,,,,,,,,,,,,2023-04-07_19h41.14.656,FaceAttractiveness,2022.2.5,142.76210405936706,
treatment,0% Never,100% Always,"images\ NASALTIP_136_M_M_N_A.png
",0,0,0,0,2,0,190,60,,,,,,,,,,,,,,,,,,,,,,,,2023-04-07_19h41.14.656,FaceAttractiveness,2022.2.5,142.76210405936706,
treatment,0% Never,100% Always,images\ LCHEEK_CFD_AF_245_143_N.png,0,0,0,0,2,1,191,25,,,,,,,,,,,,,,,,,,,,,,,,2023-04-07_19h41.14.656,FaceAttractiveness,2022.2.5,142.76210405936706,
treatment,0% Never,100% Always,images\FOREHEAD_CFD_AF_231_357_N.png,0,0,0,0,2,2,192,4,,,,,,,,,,,,,,,,,,,,,,,,2023-04-07_19h41.14.656,FaceAttractiveness,2022.2.5,142.76210405936706,
treatment,0% Never,100% Always,images\ RCHEEK_CFD_AF_231_357_N.png,0,0,0,0,2,3,193,80,,,,,,,,,,,,,,,,,,,,,,,,2023-04-07_19h41.14.656,FaceAttractiveness,2022.2.5,142.76210405936706,
treatment,0% Never,100% Always,images\ LCHEEK_CFD_LM_201_057_N.png,0,0,0,0,2,4,194,32,,,,,,,,,,,,,,,,,,,,,,,,2023-04-07_19h41.14.656,FaceAttractiveness,2022.2.5,142.76210405936706,
treatment,0% Never,100% Always,images\ RCHEEK_CFD_WF_250_167_N.png,0,0,0,0,2,5,195,93,,,,,,,,,,,,,,,,,,,,,,,,2023-04-07_19h41.14.656,FaceAttractiveness,2022.2.5,142.76210405936706,
treatment,0% Never,100% Always,images\ LIP_006_M_F_N_A.png,0,0,0,0,2,6,196,38,,,,,,,,,,,,,,,,,,,,,,,,2023-04-07_19h41.14.656,FaceAttractiveness,2022.2.5,142.76210405936706,
treatment,0% Never,100% Always,images\FOREHEAD_CFD_LM_201_057_N.png,0,0,0,0,2,7,197,13,,,,,,,,,,,,,,,,,,,,,,,,2023-04-07_19h41.14.656,FaceAttractiveness,2022.2.5,142.76210405936706,
treatment,0% Never,100% Always,images\ NASALTIP_CFD_LM_201_057_N.png,0,0,0,0,2,8,198,70,,,,,,,,,,,,,,,,,,,,,,,,2023-04-07_19h41.14.656,FaceAttractiveness,2022.2.5,142.76210405936706,
treatment,0% Never,100% Always,images\FOREHEAD_CFD_AM_233_236_N.png,0,0,0,0,2,9,199,7,,,,,,,,,,,,,,,,,,,,,,,,2023-04-07_19h41.14.656,FaceAttractiveness,2022.2.5,142.76210405936706,
treatment,0% Never,100% Always,images\FOREHEAD_CFD_AF_237_223_N.png,0,0,0,0,2,10,200,5,,,,,,,,,,,,,,,,,,,,,,,,2023-04-07_19h41.14.656,FaceAttractiveness,2022.2.5,142.76210405936706,
treatment,0% Never,100% Always,images\ NASALTIP_CFD_BF_224_002_N.png,0,0,0,0,2,11,201,66,,,,,,,,,,,,,,,,,,,,,,,,2023-04-07_19h41.14.656,FaceAttractiveness,2022.2.5,142.76210405936706,
treatment,0% Never,100% Always,images\FOREHEAD_136_M_M_N_A.png,0,0,0,0,2,12,202,3,,,,,,,,,,,,,,,,,,,,,,,,2023-04-07_19h41.14.656,FaceAttractiveness,2022.2.5,142.76210405936706,
treatment,0% Never,100% Always,images\ LCHEEK_CFD_BF_214_308_N.png,0,0,0,0,2,13,203,27,,,,,,,,,,,,,,,,,,,,,,,,2023-04-07_19h41.14.656,FaceAttractiveness,2022.2.5,142.76210405936706,
treatment,0% Never,100% Always,"images\ LCHEEK_CFD_AM_233_236_N.png
",0,0,0,0,2,14,204,26,,,,,,,,,,,,,,,,,,,,,,,,2023-04-07_19h41.14.656,FaceAttractiveness,2022.2.5,142.76210405936706,
treatment,0% Never,100% Always,images\FOREHEAD_CFD_AF_245_143_N.png,0,0,0,0,2,15,205,6,,,,,,,,,,,,,,,,,,,,,,,,2023-04-07_19h41.14.656,FaceAttractiveness,2022.2.5,142.76210405936706,
treatment,0% Never,100% Always,images\ LCHEEK_CFD_LF_224_176_N.png,0,0,0,0,2,16,206,31,,,,,,,,,,,,,,,,,,,,,,,,2023-04-07_19h41.14.656,FaceAttractiveness,2022.2.5,142.76210405936706,
treatment,0% Never,100% Always,images\ NASALTIP_CFD_LM_203_026_N.png,0,0,0,0,2,17,207,71,,,,,,,,,,,,,,,,,,,,,,,,2023-04-07_19h41.14.656,FaceAttractiveness,2022.2.5,142.76210405936706,
treatment,0% Never,100% Always,"images\ NASALTIP_CFD_AM_233_236_N.png
",0,0,0,0,2,18,208,64,,,,,,,,,,,,,,,,,,,,,,,,2023-04-07_19h41.14.656,FaceAttractiveness,2022.2.5,142.76210405936706,
treatment,0% Never,100% Always,images\ RCHEEK_CFD_LM_203_026_N.png,0,0,0,0,2,19,209,90,,,,,,,,,,,,,,,,,,,,,,,,2023-04-07_19h41.14.656,FaceAttractiveness,2022.2.5,142.76210405936706,
treatment,0% Never,100% Always,images\ LIP_CFD_AF_237_223_N.png,0,0,0,0,2,20,210,43,,,,,,,,,,,,,,,,,,,,,,,,2023-04-07_19h41.14.656,FaceAttractiveness,2022.2.5,142.76210405936706,
treatment,0% Never,100% Always,"images\ RCHEEK_CFD_AM_233_236_N.png
",0,0,0,0,2,21,211,83,,,,,,,,,,,,,,,,,,,,,,,,2023-04-07_19h41.14.656,FaceAttractiveness,2022.2.5,142.76210405936706,
treatment,0% Never,100% Always,images\ LCHEEK_CFD_WM_212_097_N.png,0,0,0,0,2,22,212,37,,,,,,,,,,,,,,,,,,,,,,,,2023-04-07_19h41.14.656,FaceAttractiveness,2022.2.5,142.76210405936706,
treatment,0% Never,100% Always,images\ NASALTIP_CFD_AF_245_143_N.png,0,0,0,0,2,23,213,63,,,,,,,,,,,,,,,,,,,,,,,,2023-04-07_19h41.14.656,FaceAttractiveness,2022.2.5,142.76210405936706,
treatment,0% Never,100% Always,images\ LCHEEK_CFD_AF_231_357_N.png,0,0,0,0,2,24,214,23,,,,,,,,,,,,,,,,,,,,,,,,2023-04-07_19h41.14.656,FaceAttractiveness,2022.2.5,142.76210405936706,
treatment,0% Never,100% Always,images\FOREHEAD_CFD_WF_002_004_N.png,0,0,0,0,2,25,215,15,,,,,,,,,,,,,,,,,,,,,,,,2023-04-07_19h41.14.656,FaceAttractiveness,2022.2.5,142.76210405936706,
treatment,0% Never,100% Always,images\ RCHEEK_035_M_F_N_A.png,0,0,0,0,2,26,216,77,,,,,,,,,,,,,,,,,,,,,,,,2023-04-07_19h41.14.656,FaceAttractiveness,2022.2.5,142.76210405936706,
treatment,0% Never,100% Always,images\ LIP_CFD_LF_224_176_N.png,0,0,0,0,2,27,217,50,,,,,,,,,,,,,,,,,,,,,,,,2023-04-07_19h41.14.656,FaceAttractiveness,2022.2.5,142.76210405936706,
treatment,0% Never,100% Always,images\ RCHEEK_CFD_BF_214_308_N.png,0,0,0,0,2,28,218,84,,,,,,,,,,,,,,,,,,,,,,,,2023-04-07_19h41.14.656,FaceAttractiveness,2022.2.5,142.76210405936706,
treatment,0% Never,100% Always,"images\ LCHEEK_CFD_WF_002_004_N.png
",0,0,0,0,2,29,219,34,,,,,,,,,,,,,,,,,,,,,,,,2023-04-07_19h41.14.656,FaceAttractiveness,2022.2.5,142.76210405936706,
treatment,0% Never,100% Always,images\ RCHEEK_CFD_WF_200_099_N.png,0,0,0,0,2,30,220,92,,,,,,,,,,,,,,,,,,,,,,,,2023-04-07_19h41.14.656,FaceAttractiveness,2022.2.5,142.76210405936706,
treatment,0% Never,100% Always,"images\ RCHEEK_CFD_WF_002_004_N.png
",0,0,0,0,2,31,221,91,,,,,,,,,,,,,,,,,,,,,,,,2023-04-07_19h41.14.656,FaceAttractiveness,2022.2.5,142.76210405936706,
treatment,0% Never,100% Always,images\ RCHEEK_CFD_WM_212_097_N.png,0,0,0,0,2,32,222,94,,,,,,,,,,,,,,,,,,,,,,,,2023-04-07_19h41.14.656,FaceAttractiveness,2022.2.5,142.76210405936706,
treatment,0% Never,100% Always,images\FOREHEAD_CFD_WF_200_099_N.png,0,0,0,0,2,33,223,16,,,,,,,,,,,,,,,,,,,,,,,,2023-04-07_19h41.14.656,FaceAttractiveness,2022.2.5,142.76210405936706,
treatment,0% Never,100% Always,"images\ RCHEEK_CFD_BM_234_172_N.png
",0,0,0,0,2,34,224,87,,,,,,,,,,,,,,,,,,,,,,,,2023-04-07_19h41.14.656,FaceAttractiveness,2022.2.5,142.76210405936706,
treatment,0% Never,100% Always,images\ NASALTIP_CFD_AF_231_357_N.png,0,0,0,0,2,35,225,61,,,,,,,,,,,,,,,,,,,,,,,,2023-04-07_19h41.14.656,FaceAttractiveness,2022.2.5,142.76210405936706,
treatment,0% Never,100% Always,images\ LIP_CFD_WM_212_097_N.png,0,0,0,0,2,36,226,56,,,,,,,,,,,,,,,,,,,,,,,,2023-04-07_19h41.14.656,FaceAttractiveness,2022.2.5,142.76210405936706,
treatment,0% Never,100% Always,images\FOREHEAD_CFD_BM_234_172_N.png,0,0,0,0,2,37,227,11,,,,,,,,,,,,,,,,,,,,,,,,2023-04-07_19h41.14.656,FaceAttractiveness,2022.2.5,142.76210405936706,
treatment,0% Never,100% Always,images\ LIP_CFD_BF_214_308_N.png,0,0,0,0,2,38,228,46,,,,,,,,,,,,,,,,,,,,,,,,2023-04-07_19h41.14.656,FaceAttractiveness,2022.2.5,142.76210405936706,
treatment,0% Never,100% Always,images\FOREHEAD_CFD_LM_203_026_N.png,0,0,0,0,2,39,229,14,,,,,,,,,,,,,,,,,,,,,,,,2023-04-07_19h41.14.656,FaceAttractiveness,2022.2.5,142.76210405936706,
treatment,0% Never,100% Always,"images\ LCHEEK_136_M_M_N_A.png
",0,0,0,0,2,40,230,22,,,,,,,,,,,,,,,,,,,,,,,,2023-04-07_19h41.14.656,FaceAttractiveness,2022.2.5,142.76210405936706,
treatment,0% Never,100% Always,images\ LCHEEK_035_M_F_N_A.png,0,0,0,0,2,41,231,20,,,,,,,,,,,,,,,,,,,,,,,,2023-04-07_19h41.14.656,FaceAttractiveness,2022.2.5,142.76210405936706,
treatment,0% Never,100% Always,images\ RCHEEK_006_M_F_N_A.png,0,0,0,0,2,42,232,76,,,,,,,,,,,,,,,,,,,,,,,,2023-04-07_19h41.14.656,FaceAttractiveness,2022.2.5,142.76210405936706,
treatment,0% Never,100% Always,images\ LCHEEK_CFD_LM_203_026_N.png,0,0,0,0,2,43,233,33,,,,,,,,,,,,,,,,,,,,,,,,2023-04-07_19h41.14.656,FaceAttractiveness,2022.2.5,142.76210405936706,
treatment,0% Never,100% Always,images\ NASALTIP_CFD_AF_237_223_N.png,0,0,0,0,2,44,234,62,,,,,,,,,,,,,,,,,,,,,,,,2023-04-07_19h41.14.656,FaceAttractiveness,2022.2.5,142.76210405936706,
treatment,0% Never,100% Always,images\ RCHEEK_CFD_LF_224_176_N.png,0,0,0,0,2,45,235,88,,,,,,,,,,,,,,,,,,,,,,,,2023-04-07_19h41.14.656,FaceAttractiveness,2022.2.5,142.76210405936706,
treatment,0% Never,100% Always,images\ LIP_CFD_WF_200_099_N.png,0,0,0,0,2,46,236,54,,,,,,,,,,,,,,,,,,,,,,,,2023-04-07_19h41.14.656,FaceAttractiveness,2022.2.5,142.76210405936706,
treatment,0% Never,100% Always,images\ LCHEEK_CFD_BM_213_134_N.png,0,0,0,0,2,47,237,29,,,,,,,,,,,,,,,,,,,,,,,,2023-04-07_19h41.14.656,FaceAttractiveness,2022.2.5,142.76210405936706,
treatment,0% Never,100% Always,images\FOREHEAD_CFD_BF_214_308_N.png,0,0,0,0,2,48,238,8,,,,,,,,,,,,,,,,,,,,,,,,2023-04-07_19h41.14.656,FaceAttractiveness,2022.2.5,142.76210405936706,
treatment,0% Never,100% Always,images\ LIP_CFD_AF_231_357_N.png,0,0,0,0,2,49,239,42,,,,,,,,,,,,,,,,,,,,,,,,2023-04-07_19h41.14.656,FaceAttractiveness,2022.2.5,142.76210405936706,
treatment,0% Never,100% Always,images\ RCHEEK_CFD_AF_237_223_N.png,0,0,0,0,2,50,240,81,,,,,,,,,,,,,,,,,,,,,,,,2023-04-07_19h41.14.656,FaceAttractiveness,2022.2.5,142.76210405936706,
treatment,0% Never,100% Always,images\ LCHEEK_006_M_F_N_A.png,0,0,0,0,2,51,241,19,,,,,,,,,,,,,,,,,,,,,,,,2023-04-07_19h41.14.656,FaceAttractiveness,2022.2.5,142.76210405936706,
treatment,0% Never,100% Always,"images\ NASALTIP_CFD_BM_234_172_N.png
",0,0,0,0,2,52,242,68,,,,,,,,,,,,,,,,,,,,,,,,2023-04-07_19h41.14.656,FaceAttractiveness,2022.2.5,142.76210405936706,
treatment,0% Never,100% Always,images\ LIP_087_M_M_N_A.png,0,0,0,0,2,53,243,40,,,,,,,,,,,,,,,,,,,,,,,,2023-04-07_19h41.14.656,FaceAttractiveness,2022.2.5,142.76210405936706,
treatment,0% Never,100% Always,images\ LCHEEK_087_M_M_N_A.png,0,0,0,0,2,54,244,21,,,,,,,,,,,,,,,,,,,,,,,,2023-04-07_19h41.14.656,FaceAttractiveness,2022.2.5,142.76210405936706,
treatment,0% Never,100% Always,"images\ LIP_CFD_BM_234_172_N.png
",0,0,0,0,2,55,245,49,,,,,,,,,,,,,,,,,,,,,,,,2023-04-07_19h41.14.656,FaceAttractiveness,2022.2.5,142.76210405936706,
treatment,0% Never,100% Always,images\FOREHEAD_CFD_BF_224_002_N.png,0,0,0,0,2,56,246,9,,,,,,,,,,,,,,,,,,,,,,,,2023-04-07_19h41.14.656,FaceAttractiveness,2022.2.5,142.76210405936706,
treatment,0% Never,100% Always,images\ RCHEEK_CFD_BF_224_002_N.png,0,0,0,0,2,57,247,85,,,,,,,,,,,,,,,,,,,,,,,,2023-04-07_19h41.14.656,FaceAttractiveness,2022.2.5,142.76210405936706,
treatment,0% Never,100% Always,"images\ LIP_136_M_M_N_A.png
",0,0,0,0,2,58,248,41,,,,,,,,,,,,,,,,,,,,,,,,2023-04-07_19h41.14.656,FaceAttractiveness,2022.2.5,142.76210405936706,
treatment,0% Never,100% Always,images\FOREHEAD_087_M_M_N_A.png,0,0,0,0,2,59,249,2,,,,,,,,,,,,,,,,,,,,,,,,2023-04-07_19h41.14.656,FaceAttractiveness,2022.2.5,142.76210405936706,
treatment,0% Never,100% Always,images\FOREHEAD_006_M_F_N_A.png,0,0,0,0,2,60,250,0,,,,,,,,,,,,,,,,,,,,,,,,2023-04-07_19h41.14.656,FaceAttractiveness,2022.2.5,142.76210405936706,
treatment,0% Never,100% Always,"images\ NASALTIP_CFD_WF_002_004_N.png
",0,0,0,0,2,61,251,72,,,,,,,,,,,,,,,,,,,,,,,,2023-04-07_19h41.14.656,FaceAttractiveness,2022.2.5,142.76210405936706,
treatment,0% Never,100% Always,images\ RCHEEK_CFD_BM_213_134_N.png,0,0,0,0,2,62,252,86,,,,,,,,,,,,,,,,,,,,,,,,2023-04-07_19h41.14.656,FaceAttractiveness,2022.2.5,142.76210405936706,
treatment,0% Never,100% Always,"images\ LIP_CFD_WF_002_004_N.png
",0,0,0,0,2,63,253,53,,,,,,,,,,,,,,,,,,,,,,,,2023-04-07_19h41.14.656,FaceAttractiveness,2022.2.5,142.76210405936706,
treatment,0% Never,100% Always,images\ LCHEEK_CFD_AF_237_223_N.png,0,0,0,0,2,64,254,24,,,,,,,,,,,,,,,,,,,,,,,,2023-04-07_19h41.14.656,FaceAttractiveness,2022.2.5,142.76210405936706,
treatment,0% Never,100% Always,images\FOREHEAD_CFD_WF_250_167_N.png,0,0,0,0,2,65,255,17,,,,,,,,,,,,,,,,,,,,,,,,2023-04-07_19h41.14.656,FaceAttractiveness,2022.2.5,142.76210405936706,
treatment,0% Never,100% Always,images\ NASALTIP_CFD_BM_213_134_N.png,0,0,0,0,2,66,256,67,,,,,,,,,,,,,,,,,,,,,,,,2023-04-07_19h41.14.656,FaceAttractiveness,2022.2.5,142.76210405936706,
treatment,0% Never,100% Always,images\ NASALTIP_087_M_M_N_A.png,0,0,0,0,2,67,257,59,,,,,,,,,,,,,,,,,,,,,,,,2023-04-07_19h41.14.656,FaceAttractiveness,2022.2.5,142.76210405936706,
treatment,0% Never,100% Always,images\ NASALTIP_CFD_WF_200_099_N.png,0,0,0,0,2,68,258,73,,,,,,,,,,,,,,,,,,,,,,,,2023-04-07_19h41.14.656,FaceAttractiveness,2022.2.5,142.76210405936706,
treatment,0% Never,100% Always,images\ LIP_CFD_AF_245_143_N.png,0,0,0,0,2,69,259,44,,,,,,,,,,,,,,,,,,,,,,,,2023-04-07_19h41.14.656,FaceAttractiveness,2022.2.5,142.76210405936706,
treatment,0% Never,100% Always,images\ NASALTIP_CFD_WM_212_097_N.png,0,0,0,0,2,70,260,75,,,,,,,,,,,,,,,,,,,,,,,,2023-04-07_19h41.14.656,FaceAttractiveness,2022.2.5,142.76210405936706,
treatment,0% Never,100% Always,images\ LIP_CFD_WF_250_167_N.png,0,0,0,0,2,71,261,55,,,,,,,,,,,,,,,,,,,,,,,,2023-04-07_19h41.14.656,FaceAttractiveness,2022.2.5,142.76210405936706,
treatment,0% Never,100% Always,images\ NASALTIP_CFD_LF_224_176_N.png,0,0,0,0,2,72,262,69,,,,,,,,,,,,,,,,,,,,,,,,2023-04-07_19h41.14.656,FaceAttractiveness,2022.2.5,142.76210405936706,
treatment,0% Never,100% Always,"images\ LIP_CFD_AM_233_236_N.png
",0,0,0,0,2,73,263,45,,,,,,,,,,,,,,,,,,,,,,,,2023-04-07_19h41.14.656,FaceAttractiveness,2022.2.5,142.76210405936706,
treatment,0% Never,100% Always,images\FOREHEAD_CFD_WM_212_097_N.png,0,0,0,0,2,74,264,18,,,,,,,,,,,,,,,,,,,,,,,,2023-04-07_19h41.14.656,FaceAttractiveness,2022.2.5,142.76210405936706,
treatment,0% Never,100% Always,images\ LIP_CFD_BM_213_134_N.png,0,0,0,0,2,75,265,48,,,,,,,,,,,,,,,,,,,,,,,,2023-04-07_19h41.14.656,FaceAttractiveness,2022.2.5,142.76210405936706,
treatment,0% Never,100% Always,images\ LCHEEK_CFD_BF_224_002_N.png,0,0,0,0,2,76,266,28,,,,,,,,,,,,,,,,,,,,,,,,2023-04-07_19h41.14.656,FaceAttractiveness,2022.2.5,142.76210405936706,
treatment,0% Never,100% Always,"images\ RCHEEK_136_M_M_N_A.png
",0,0,0,0,2,77,267,79,,,,,,,,,,,,,,,,,,,,,,,,2023-04-07_19h41.14.656,FaceAttractiveness,2022.2.5,142.76210405936706,
treatment,0% Never,100% Always,images\ LCHEEK_CFD_WF_250_167_N.png,0,0,0,0,2,78,268,36,,,,,,,,,,,,,,,,,,,,,,,,2023-04-07_19h41.14.656,FaceAttractiveness,2022.2.5,142.76210405936706,
treatment,0% Never,100% Always,images\ LIP_CFD_BF_224_002_N.png,0,0,0,0,2,79,269,47,,,,,,,,,,,,,,,,,,,,,,,,2023-04-07_19h41.14.656,FaceAttractiveness,2022.2.5,142.76210405936706,
treatment,0% Never,100% Always,images\FOREHEAD_035_M_F_N_A.png,0,0,0,0,2,80,270,1,,,,,,,,,,,,,,,,,,,,,,,,2023-04-07_19h41.14.656,FaceAttractiveness,2022.2.5,142.76210405936706,
treatment,0% Never,100% Always,images\ LIP_CFD_LM_201_057_N.png,0,0,0,0,2,81,271,51,,,,,,,,,,,,,,,,,,,,,,,,2023-04-07_19h41.14.656,FaceAttractiveness,2022.2.5,142.76210405936706,
treatment,0% Never,100% Always,images\ LCHEEK_CFD_WF_200_099_N.png,0,0,0,0,2,82,272,35,,,,,,,,,,,,,,,,,,,,,,,,2023-04-07_19h41.14.656,FaceAttractiveness,2022.2.5,142.76210405936706,
treatment,0% Never,100% Always,images\ NASALTIP_CFD_WF_250_167_N.png,0,0,0,0,2,83,273,74,,,,,,,,,,,,,,,,,,,,,,,,2023-04-07_19h41.14.656,FaceAttractiveness,2022.2.5,142.76210405936706,
treatment,0% Never,100% Always,images\ LIP_CFD_LM_203_026_N.png,0,0,0,0,2,84,274,52,,,,,,,,,,,,,,,,,,,,,,,,2023-04-07_19h41.14.656,FaceAttractiveness,2022.2.5,142.76210405936706,
treatment,0% Never,100% Always,images\ RCHEEK_CFD_AF_245_143_N.png,0,0,0,0,2,85,275,82,,,,,,,,,,,,,,,,,,,,,,,,2023-04-07_19h41.14.656,FaceAttractiveness,2022.2.5,142.76210405936706,
treatment,0% Never,100% Always,images\FOREHEAD_CFD_LF_224_176_N.png,0,0,0,0,2,86,276,12,,,,,,,,,,,,,,,,,,,,,,,,2023-04-07_19h41.14.656,FaceAttractiveness,2022.2.5,142.76210405936706,
treatment,0% Never,100% Always,images\ RCHEEK_087_M_M_N_A.png,0,0,0,0,2,87,277,78,,,,,,,,,,,,,,,,,,,,,,,,2023-04-07_19h41.14.656,FaceAttractiveness,2022.2.5,142.76210405936706,
treatment,0% Never,100% Always,images\ NASALTIP_006_M_F_N_A.png,0,0,0,0,2,88,278,57,,,,,,,,,,,,,,,,,,,,,,,,2023-04-07_19h41.14.656,FaceAttractiveness,2022.2.5,142.76210405936706,
treatment,0% Never,100% Always,images\ LIP_035_M_F_N_A.png,0,0,0,0,2,89,279,39,,,,,,,,,,,,,,,,,,,,,,,,2023-04-07_19h41.14.656,FaceAttractiveness,2022.2.5,142.76210405936706,
treatment,0% Never,100% Always,images\ NASALTIP_CFD_BF_214_308_N.png,0,0,0,0,2,90,280,65,,,,,,,,,,,,,,,,,,,,,,,,2023-04-07_19h41.14.656,FaceAttractiveness,2022.2.5,142.76210405936706,
treatment,0% Never,100% Always,images\FOREHEAD_CFD_BM_213_134_N.png,0,0,0,0,2,91,281,10,,,,,,,,,,,,,,,,,,,,,,,,2023-04-07_19h41.14.656,FaceAttractiveness,2022.2.5,142.76210405936706,
treatment,0% Never,100% Always,images\ RCHEEK_CFD_LM_201_057_N.png,0,0,0,0,2,92,282,89,,,,,,,,,,,,,,,,,,,,,,,,2023-04-07_19h41.14.656,FaceAttractiveness,2022.2.5,142.76210405936706,
treatment,0% Never,100% Always,images\ NASALTIP_035_M_F_N_A.png,0,0,0,0,2,93,283,58,,,,,,,,,,,,,,,,,,,,,,,,2023-04-07_19h41.14.656,FaceAttractiveness,2022.2.5,142.76210405936706,
treatment,0% Never,100% Always,"images\ LCHEEK_CFD_BM_234_172_N.png
",0,0,0,0,2,94,284,30,,,,,,,,,,,,,,,,,,,,,,,,2023-04-07_19h41.14.656,FaceAttractiveness,2022.2.5,142.76210405936706,
treatment,0% Never,100% Always,images\FOREHEAD_CFD_AF_237_223_N.png,0,0,0,0,3,0,285,5,,,,,,,,,,,,,,,,,,,,,,,,2023-04-07_19h41.14.656,FaceAttractiveness,2022.2.5,142.76210405936706,
treatment,0% Never,100% Always,images\ LCHEEK_CFD_LM_203_026_N.png,0,0,0,0,3,1,286,33,,,,,,,,,,,,,,,,,,,,,,,,2023-04-07_19h41.14.656,FaceAttractiveness,2022.2.5,142.76210405936706,
treatment,0% Never,100% Always,images\ RCHEEK_CFD_BF_224_002_N.png,0,0,0,0,3,2,287,85,,,,,,,,,,,,,,,,,,,,,,,,2023-04-07_19h41.14.656,FaceAttractiveness,2022.2.5,142.76210405936706,
treatment,0% Never,100% Always,images\ LCHEEK_CFD_WF_250_167_N.png,0,0,0,0,3,3,288,36,,,,,,,,,,,,,,,,,,,,,,,,2023-04-07_19h41.14.656,FaceAttractiveness,2022.2.5,142.76210405936706,
treatment,0% Never,100% Always,images\ LCHEEK_CFD_LF_224_176_N.png,0,0,0,0,3,4,289,31,,,,,,,,,,,,,,,,,,,,,,,,2023-04-07_19h41.14.656,FaceAttractiveness,2022.2.5,142.76210405936706,
treatment,0% Never,100% Always,images\ RCHEEK_CFD_AF_237_223_N.png,0,0,0,0,3,5,290,81,,,,,,,,,,,,,,,,,,,,,,,,2023-04-07_19h41.14.656,FaceAttractiveness,2022.2.5,142.76210405936706,
treatment,0% Never,100% Always,images\ LIP_CFD_AF_237_223_N.png,0,0,0,0,3,6,291,43,,,,,,,,,,,,,,,,,,,,,,,,2023-04-07_19h41.14.656,FaceAttractiveness,2022.2.5,142.76210405936706,
treatment,0% Never,100% Always,images\ RCHEEK_087_M_M_N_A.png,0,0,0,0,3,7,292,78,,,,,,,,,,,,,,,,,,,,,,,,2023-04-07_19h41.14.656,FaceAttractiveness,2022.2.5,142.76210405936706,
treatment,0% Never,100% Always,images\ NASALTIP_CFD_AF_237_223_N.png,0,0,0,0,3,8,293,62,,,,,,,,,,,,,,,,,,,,,,,,2023-04-07_19h41.14.656,FaceAttractiveness,2022.2.5,142.76210405936706,
treatment,0% Never,100% Always,images\ RCHEEK_006_M_F_N_A.png,0,0,0,0,3,9,294,76,,,,,,,,,,,,,,,,,,,,,,,,2023-04-07_19h41.14.656,FaceAttractiveness,2022.2.5,142.76210405936706,
treatment,0% Never,100% Always,images\ LIP_006_M_F_N_A.png,0,0,0,0,3,10,295,38,,,,,,,,,,,,,,,,,,,,,,,,2023-04-07_19h41.14.656,FaceAttractiveness,2022.2.5,142.76210405936706,
treatment,0% Never,100% Always,images\ LIP_CFD_BF_214_308_N.png,0,0,0,0,3,11,296,46,,,,,,,,,,,,,,,,,,,,,,,,2023-04-07_19h41.14.656,FaceAttractiveness,2022.2.5,142.76210405936706,
treatment,0% Never,100% Always,images\ RCHEEK_CFD_LM_201_057_N.png,0,0,0,0,3,12,297,89,,,,,,,,,,,,,,,,,,,,,,,,2023-04-07_19h41.14.656,FaceAttractiveness,2022.2.5,142.76210405936706,
treatment,0% Never,100% Always,images\ RCHEEK_CFD_WF_250_167_N.png,0,0,0,0,3,13,298,93,,,,,,,,,,,,,,,,,,,,,,,,2023-04-07_19h41.14.656,FaceAttractiveness,2022.2.5,142.76210405936706,
treatment,0% Never,100% Always,"images\ LCHEEK_136_M_M_N_A.png
",0,0,0,0,3,14,299,22,,,,,,,,,,,,,,,,,,,,,,,,2023-04-07_19h41.14.656,FaceAttractiveness,2022.2.5,142.76210405936706,
treatment,0% Never,100% Always,images\ RCHEEK_CFD_AF_231_357_N.png,0,0,0,0,3,15,300,80,,,,,,,,,,,,,,,,,,,,,,,,2023-04-07_19h41.14.656,FaceAttractiveness,2022.2.5,142.76210405936706,
treatment,0% Never,100% Always,images\ LIP_CFD_LM_201_057_N.png,0,0,0,0,3,16,301,51,,,,,,,,,,,,,,,,,,,,,,,,2023-04-07_19h41.14.656,FaceAttractiveness,2022.2.5,142.76210405936706,
treatment,0% Never,100% Always,images\ NASALTIP_CFD_WM_212_097_N.png,0,0,0,0,3,17,302,75,,,,,,,,,,,,,,,,,,,,,,,,2023-04-07_19h41.14.656,FaceAttractiveness,2022.2.5,142.76210405936706,
treatment,0% Never,100% Always,"images\ LCHEEK_CFD_WF_002_004_N.png
",0,0,0,0,3,18,303,34,,,,,,,,,,,,,,,,,,,,,,,,2023-04-07_19h41.14.656,FaceAttractiveness,2022.2.5,142.76210405936706,
treatment,0% Never,100% Always,"images\ RCHEEK_CFD_BM_234_172_N.png
",0,0,0,0,3,19,304,87,,,,,,,,,,,,,,,,,,,,,,,,2023-04-07_19h41.14.656,FaceAttractiveness,2022.2.5,142.76210405936706,
treatment,0% Never,100% Always,images\ LCHEEK_CFD_AF_237_223_N.png,0,0,0,0,3,20,305,24,,,,,,,,,,,,,,,,,,,,,,,,2023-04-07_19h41.14.656,FaceAttractiveness,2022.2.5,142.76210405936706,
treatment,0% Never,100% Always,images\ LCHEEK_CFD_WF_200_099_N.png,0,0,0,0,3,21,306,35,,,,,,,,,,,,,,,,,,,,,,,,2023-04-07_19h41.14.656,FaceAttractiveness,2022.2.5,142.76210405936706,
treatment,0% Never,100% Always,"images\ LCHEEK_CFD_AM_233_236_N.png
",0,0,0,0,3,22,307,26,,,,,,,,,,,,,,,,,,,,,,,,2023-04-07_19h41.14.656,FaceAttractiveness,2022.2.5,142.76210405936706,
treatment,0% Never,100% Always,images\FOREHEAD_CFD_LM_201_057_N.png,0,0,0,0,3,23,308,13,,,,,,,,,,,,,,,,,,,,,,,,2023-04-07_19h41.14.656,FaceAttractiveness,2022.2.5,142.76210405936706,
treatment,0% Never,100% Always,"images\ NASALTIP_CFD_AM_233_236_N.png
",0,0,0,0,3,24,309,64,,,,,,,,,,,,,,,,,,,,,,,,2023-04-07_19h41.14.656,FaceAttractiveness,2022.2.5,142.76210405936706,
treatment,0% Never,100% Always,images\ LCHEEK_CFD_LM_201_057_N.png,0,0,0,0,3,25,310,32,,,,,,,,,,,,,,,,,,,,,,,,2023-04-07_19h41.14.656,FaceAttractiveness,2022.2.5,142.76210405936706,
treatment,0% Never,100% Always,images\ LCHEEK_CFD_WM_212_097_N.png,0,0,0,0,3,26,311,37,,,,,,,,,,,,,,,,,,,,,,,,2023-04-07_19h41.14.656,FaceAttractiveness,2022.2.5,142.76210405936706,
treatment,0% Never,100% Always,"images\ RCHEEK_136_M_M_N_A.png
",0,0,0,0,3,27,312,79,,,,,,,,,,,,,,,,,,,,,,,,2023-04-07_19h41.14.656,FaceAttractiveness,2022.2.5,142.76210405936706,
treatment,0% Never,100% Always,images\ LIP_CFD_WM_212_097_N.png,0,0,0,0,3,28,313,56,,,,,,,,,,,,,,,,,,,,,,,,2023-04-07_19h41.14.656,FaceAttractiveness,2022.2.5,142.76210405936706,
treatment,0% Never,100% Always,images\ RCHEEK_CFD_BM_213_134_N.png,0,0,0,0,3,29,314,86,,,,,,,,,,,,,,,,,,,,,,,,2023-04-07_19h41.14.656,FaceAttractiveness,2022.2.5,142.76210405936706,
treatment,0% Never,100% Always,images\ RCHEEK_CFD_WM_212_097_N.png,0,0,0,0,3,30,315,94,,,,,,,,,,,,,,,,,,,,,,,,2023-04-07_19h41.14.656,FaceAttractiveness,2022.2.5,142.76210405936706,
treatment,0% Never,100% Always,images\ NASALTIP_006_M_F_N_A.png,0,0,0,0,3,31,316,57,,,,,,,,,,,,,,,,,,,,,,,,2023-04-07_19h41.14.656,FaceAttractiveness,2022.2.5,142.76210405936706,
treatment,0% Never,100% Always,images\FOREHEAD_CFD_LM_203_026_N.png,0,0,0,0,3,32,317,14,,,,,,,,,,,,,,,,,,,,,,,,2023-04-07_19h41.14.656,FaceAttractiveness,2022.2.5,142.76210405936706,
treatment,0% Never,100% Always,images\FOREHEAD_CFD_WF_200_099_N.png,0,0,0,0,3,33,318,16,,,,,,,,,,,,,,,,,,,,,,,,2023-04-07_19h41.14.656,FaceAttractiveness,2022.2.5,142.76210405936706,
treatment,0% Never,100% Always,images\ RCHEEK_CFD_LM_203_026_N.png,0,0,0,0,3,34,319,90,,,,,,,,,,,,,,,,,,,,,,,,2023-04-07_19h41.14.656,FaceAttractiveness,2022.2.5,142.76210405936706,
treatment,0% Never,100% Always,images\FOREHEAD_CFD_BF_224_002_N.png,0,0,0,0,3,35,320,9,,,,,,,,,,,,,,,,,,,,,,,,2023-04-07_19h41.14.656,FaceAttractiveness,2022.2.5,142.76210405936706,
treatment,0% Never,100% Always,images\ RCHEEK_CFD_LF_224_176_N.png,0,0,0,0,3,36,321,88,,,,,,,,,,,,,,,,,,,,,,,,2023-04-07_19h41.14.656,FaceAttractiveness,2022.2.5,142.76210405936706,
treatment,0% Never,100% Always,images\FOREHEAD_CFD_BM_213_134_N.png,0,0,0,0,3,37,322,10,,,,,,,,,,,,,,,,,,,,,,,,2023-04-07_19h41.14.656,FaceAttractiveness,2022.2.5,142.76210405936706,
treatment,0% Never,100% Always,"images\ RCHEEK_CFD_AM_233_236_N.png
",0,0,0,0,3,38,323,83,,,,,,,,,,,,,,,,,,,,,,,,2023-04-07_19h41.14.656,FaceAttractiveness,2022.2.5,142.76210405936706,
treatment,0% Never,100% Always,images\FOREHEAD_136_M_M_N_A.png,0,0,0,0,3,39,324,3,,,,,,,,,,,,,,,,,,,,,,,,2023-04-07_19h41.14.656,FaceAttractiveness,2022.2.5,142.76210405936706,
treatment,0% Never,100% Always,images\ NASALTIP_035_M_F_N_A.png,0,0,0,0,3,40,325,58,,,,,,,,,,,,,,,,,,,,,,,,2023-04-07_19h41.14.656,FaceAttractiveness,2022.2.5,142.76210405936706,
treatment,0% Never,100% Always,images\ LIP_CFD_LF_224_176_N.png,0,0,0,0,3,41,326,50,,,,,,,,,,,,,,,,,,,,,,,,2023-04-07_19h41.14.656,FaceAttractiveness,2022.2.5,142.76210405936706,
treatment,0% Never,100% Always,"images\ LCHEEK_CFD_BM_234_172_N.png
",0,0,0,0,3,42,327,30,,,,,,,,,,,,,,,,,,,,,,,,2023-04-07_19h41.14.656,FaceAttractiveness,2022.2.5,142.76210405936706,
treatment,0% Never,100% Always,images\ LCHEEK_CFD_AF_231_357_N.png,0,0,0,0,3,43,328,23,,,,,,,,,,,,,,,,,,,,,,,,2023-04-07_19h41.14.656,FaceAttractiveness,2022.2.5,142.76210405936706,
treatment,0% Never,100% Always,images\ LCHEEK_CFD_BF_214_308_N.png,0,0,0,0,3,44,329,27,,,,,,,,,,,,,,,,,,,,,,,,2023-04-07_19h41.14.656,FaceAttractiveness,2022.2.5,142.76210405936706,
treatment,0% Never,100% Always,images\FOREHEAD_CFD_WF_002_004_N.png,0,0,0,0,3,45,330,15,,,,,,,,,,,,,,,,,,,,,,,,2023-04-07_19h41.14.656,FaceAttractiveness,2022.2.5,142.76210405936706,
treatment,0% Never,100% Always,images\FOREHEAD_CFD_BM_234_172_N.png,0,0,0,0,3,46,331,11,,,,,,,,,,,,,,,,,,,,,,,,2023-04-07_19h41.14.656,FaceAttractiveness,2022.2.5,142.76210405936706,
treatment,0% Never,100% Always,images\ NASALTIP_CFD_BM_213_134_N.png,0,0,0,0,3,47,332,67,,,,,,,,,,,,,,,,,,,,,,,,2023-04-07_19h41.14.656,FaceAttractiveness,2022.2.5,142.76210405936706,
treatment,0% Never,100% Always,images\ NASALTIP_CFD_AF_231_357_N.png,0,0,0,0,3,48,333,61,,,,,,,,,,,,,,,,,,,,,,,,2023-04-07_19h41.14.656,FaceAttractiveness,2022.2.5,142.76210405936706,
treatment,0% Never,100% Always,images\FOREHEAD_035_M_F_N_A.png,0,0,0,0,3,49,334,1,,,,,,,,,,,,,,,,,,,,,,,,2023-04-07_19h41.14.656,FaceAttractiveness,2022.2.5,142.76210405936706,
treatment,0% Never,100% Always,images\FOREHEAD_CFD_AF_231_357_N.png,0,0,0,0,3,50,335,4,,,,,,,,,,,,,,,,,,,,,,,,2023-04-07_19h41.14.656,FaceAttractiveness,2022.2.5,142.76210405936706,
treatment,0% Never,100% Always,images\ LIP_087_M_M_N_A.png,0,0,0,0,3,51,336,40,,,,,,,,,,,,,,,,,,,,,,,,2023-04-07_19h41.14.656,FaceAttractiveness,2022.2.5,142.76210405936706,
treatment,0% Never,100% Always,"images\ RCHEEK_CFD_WF_002_004_N.png
",0,0,0,0,3,52,337,91,,,,,,,,,,,,,,,,,,,,,,,,2023-04-07_19h41.14.656,FaceAttractiveness,2022.2.5,142.76210405936706,
treatment,0% Never,100% Always,"images\ LIP_CFD_BM_234_172_N.png
",0,0,0,0,3,53,338,49,,,,,,,,,,,,,,,,,,,,,,,,2023-04-07_19h41.14.656,FaceAttractiveness,2022.2.5,142.76210405936706,
treatment,0% Never,100% Always,images\ NASALTIP_087_M_M_N_A.png,0,0,0,0,3,54,339,59,,,,,,,,,,,,,,,,,,,,,,,,2023-04-07_19h41.14.656,FaceAttractiveness,2022.2.5,142.76210405936706,
treatment,0% Never,100% Always,images\ LIP_CFD_AF_245_143_N.png,0,0,0,0,3,55,340,44,,,,,,,,,,,,,,,,,,,,,,,,2023-04-07_19h41.14.656,FaceAttractiveness,2022.2.5,142.76210405936706,
treatment,0% Never,100% Always,images\ LCHEEK_087_M_M_N_A.png,0,0,0,0,3,56,341,21,,,,,,,,,,,,,,,,,,,,,,,,2023-04-07_19h41.14.656,FaceAttractiveness,2022.2.5,142.76210405936706,
treatment,0% Never,100% Always,images\ LCHEEK_CFD_BM_213_134_N.png,0,0,0,0,3,57,342,29,,,,,,,,,,,,,,,,,,,,,,,,2023-04-07_19h41.14.656,FaceAttractiveness,2022.2.5,142.76210405936706,
treatment,0% Never,100% Always,images\ LCHEEK_035_M_F_N_A.png,0,0,0,0,3,58,343,20,,,,,,,,,,,,,,,,,,,,,,,,2023-04-07_19h41.14.656,FaceAttractiveness,2022.2.5,142.76210405936706,
treatment,0% Never,100% Always,images\ LIP_CFD_WF_250_167_N.png,0,0,0,0,3,59,344,55,,,,,,,,,,,,,,,,,,,,,,,,2023-04-07_19h41.14.656,FaceAttractiveness,2022.2.5,142.76210405936706,
treatment,0% Never,100% Always,images\ RCHEEK_035_M_F_N_A.png,0,0,0,0,3,60,345,77,,,,,,,,,,,,,,,,,,,,,,,,2023-04-07_19h41.14.656,FaceAttractiveness,2022.2.5,142.76210405936706,
treatment,0% Never,100% Always,"images\ NASALTIP_CFD_BM_234_172_N.png
",0,0,0,0,3,61,346,68,,,,,,,,,,,,,,,,,,,,,,,,2023-04-07_19h41.14.656,FaceAttractiveness,2022.2.5,142.76210405936706,
treatment,0% Never,100% Always,images\ RCHEEK_CFD_BF_214_308_N.png,0,0,0,0,3,62,347,84,,,,,,,,,,,,,,,,,,,,,,,,2023-04-07_19h41.14.656,FaceAttractiveness,2022.2.5,142.76210405936706,
treatment,0% Never,100% Always,images\ NASALTIP_CFD_WF_250_167_N.png,0,0,0,0,3,63,348,74,,,,,,,,,,,,,,,,,,,,,,,,2023-04-07_19h41.14.656,FaceAttractiveness,2022.2.5,142.76210405936706,
treatment,0% Never,100% Always,images\FOREHEAD_CFD_AM_233_236_N.png,0,0,0,0,3,64,349,7,,,,,,,,,,,,,,,,,,,,,,,,2023-04-07_19h41.14.656,FaceAttractiveness,2022.2.5,142.76210405936706,
treatment,0% Never,100% Always,images\ LIP_CFD_LM_203_026_N.png,0,0,0,0,3,65,350,52,,,,,,,,,,,,,,,,,,,,,,,,2023-04-07_19h41.14.656,FaceAttractiveness,2022.2.5,142.76210405936706,
treatment,0% Never,100% Always,images\ LIP_CFD_BM_213_134_N.png,0,0,0,0,3,66,351,48,,,,,,,,,,,,,,,,,,,,,,,,2023-04-07_19h41.14.656,FaceAttractiveness,2022.2.5,142.76210405936706,
treatment,0% Never,100% Always,images\FOREHEAD_CFD_AF_245_143_N.png,0,0,0,0,3,67,352,6,,,,,,,,,,,,,,,,,,,,,,,,2023-04-07_19h41.14.656,FaceAttractiveness,2022.2.5,142.76210405936706,
treatment,0% Never,100% Always,images\FOREHEAD_006_M_F_N_A.png,0,0,0,0,3,68,353,0,,,,,,,,,,,,,,,,,,,,,,,,2023-04-07_19h41.14.656,FaceAttractiveness,2022.2.5,142.76210405936706,
treatment,0% Never,100% Always,images\FOREHEAD_CFD_WM_212_097_N.png,0,0,0,0,3,69,354,18,,,,,,,,,,,,,,,,,,,,,,,,2023-04-07_19h41.14.656,FaceAttractiveness,2022.2.5,142.76210405936706,
treatment,0% Never,100% Always,"images\ LIP_136_M_M_N_A.png
",0,0,0,0,3,70,355,41,,,,,,,,,,,,,,,,,,,,,,,,2023-04-07_19h41.14.656,FaceAttractiveness,2022.2.5,142.76210405936706,
treatment,0% Never,100% Always,"images\ NASALTIP_136_M_M_N_A.png
",0,0,0,0,3,71,356,60,,,,,,,,,,,,,,,,,,,,,,,,2023-04-07_19h41.14.656,FaceAttractiveness,2022.2.5,142.76210405936706,
treatment,0% Never,100% Always,images\ LIP_CFD_BF_224_002_N.png,0,0,0,0,3,72,357,47,,,,,,,,,,,,,,,,,,,,,,,,2023-04-07_19h41.14.656,FaceAttractiveness,2022.2.5,142.76210405936706,
treatment,0% Never,100% Always,images\ NASALTIP_CFD_WF_200_099_N.png,0,0,0,0,3,73,358,73,,,,,,,,,,,,,,,,,,,,,,,,2023-04-07_19h41.14.656,FaceAttractiveness,2022.2.5,142.76210405936706,
treatment,0% Never,100% Always,images\FOREHEAD_CFD_LF_224_176_N.png,0,0,0,0,3,74,359,12,,,,,,,,,,,,,,,,,,,,,,,,2023-04-07_19h41.14.656,FaceAttractiveness,2022.2.5,142.76210405936706,
treatment,0% Never,100% Always,images\ NASALTIP_CFD_BF_224_002_N.png,0,0,0,0,3,75,360,66,,,,,,,,,,,,,,,,,,,,,,,,2023-04-07_19h41.14.656,FaceAttractiveness,2022.2.5,142.76210405936706,
treatment,0% Never,100% Always,images\ LCHEEK_006_M_F_N_A.png,0,0,0,0,3,76,361,19,,,,,,,,,,,,,,,,,,,,,,,,2023-04-07_19h41.14.656,FaceAttractiveness,2022.2.5,142.76210405936706,
treatment,0% Never,100% Always,images\ NASALTIP_CFD_AF_245_143_N.png,0,0,0,0,3,77,362,63,,,,,,,,,,,,,,,,,,,,,,,,2023-04-07_19h41.14.656,FaceAttractiveness,2022.2.5,142.76210405936706,
treatment,0% Never,100% Always,images\ NASALTIP_CFD_LF_224_176_N.png,0,0,0,0,3,78,363,69,,,,,,,,,,,,,,,,,,,,,,,,2023-04-07_19h41.14.656,FaceAttractiveness,2022.2.5,142.76210405936706,
treatment,0% Never,100% Always,"images\ LIP_CFD_AM_233_236_N.png
",0,0,0,0,3,79,364,45,,,,,,,,,,,,,,,,,,,,,,,,2023-04-07_19h41.14.656,FaceAttractiveness,2022.2.5,142.76210405936706,
treatment,0% Never,100% Always,images\ LIP_CFD_WF_200_099_N.png,0,0,0,0,3,80,365,54,,,,,,,,,,,,,,,,,,,,,,,,2023-04-07_19h41.14.656,FaceAttractiveness,2022.2.5,142.76210405936706,
treatment,0% Never,100% Always,images\ LIP_CFD_AF_231_357_N.png,0,0,0,0,3,81,366,42,,,,,,,,,,,,,,,,,,,,,,,,2023-04-07_19h41.14.656,FaceAttractiveness,2022.2.5,142.76210405936706,
treatment,0% Never,100% Always,images\ NASALTIP_CFD_BF_214_308_N.png,0,0,0,0,3,82,367,65,,,,,,,,,,,,,,,,,,,,,,,,2023-04-07_19h41.14.656,FaceAttractiveness,2022.2.5,142.76210405936706,
treatment,0% Never,100% Always,images\FOREHEAD_CFD_BF_214_308_N.png,0,0,0,0,3,83,368,8,,,,,,,,,,,,,,,,,,,,,,,,2023-04-07_19h41.14.656,FaceAttractiveness,2022.2.5,142.76210405936706,
treatment,0% Never,100% Always,"images\ LIP_CFD_WF_002_004_N.png
",0,0,0,0,3,84,369,53,,,,,,,,,,,,,,,,,,,,,,,,2023-04-07_19h41.14.656,FaceAttractiveness,2022.2.5,142.76210405936706,
treatment,0% Never,100% Always,images\FOREHEAD_CFD_WF_250_167_N.png,0,0,0,0,3,85,370,17,,,,,,,,,,,,,,,,,,,,,,,,2023-04-07_19h41.14.656,FaceAttractiveness,2022.2.5,142.76210405936706,
treatment,0% Never,100% Always,images\ LIP_035_M_F_N_A.png,0,0,0,0,3,86,371,39,,,,,,,,,,,,,,,,,,,,,,,,2023-04-07_19h41.14.656,FaceAttractiveness,2022.2.5,142.76210405936706,
treatment,0% Never,100% Always,images\ RCHEEK_CFD_WF_200_099_N.png,0,0,0,0,3,87,372,92,,,,,,,,,,,,,,,,,,,,,,,,2023-04-07_19h41.14.656,FaceAttractiveness,2022.2.5,142.76210405936706,
treatment,0% Never,100% Always,images\FOREHEAD_087_M_M_N_A.png,0,0,0,0,3,88,373,2,,,,,,,,,,,,,,,,,,,,,,,,2023-04-07_19h41.14.656,FaceAttractiveness,2022.2.5,142.76210405936706,
treatment,0% Never,100% Always,images\ NASALTIP_CFD_LM_203_026_N.png,0,0,0,0,3,89,374,71,,,,,,,,,,,,,,,,,,,,,,,,2023-04-07_19h41.14.656,FaceAttractiveness,2022.2.5,142.76210405936706,
treatment,0% Never,100% Always,images\ LCHEEK_CFD_BF_224_002_N.png,0,0,0,0,3,90,375,28,,,,,,,,,,,,,,,,,,,,,,,,2023-04-07_19h41.14.656,FaceAttractiveness,2022.2.5,142.76210405936706,
treatment,0% Never,100% Always,images\ LCHEEK_CFD_AF_245_143_N.png,0,0,0,0,3,91,376,25,,,,,,,,,,,,,,,,,,,,,,,,2023-04-07_19h41.14.656,FaceAttractiveness,2022.2.5,142.76210405936706,
treatment,0% Never,100% Always,images\ RCHEEK_CFD_AF_245_143_N.png,0,0,0,0,3,92,377,82,,,,,,,,,,,,,,,,,,,,,,,,2023-04-07_19h41.14.656,FaceAttractiveness,2022.2.5,142.76210405936706,
treatment,0% Never,100% Always,images\ NASALTIP_CFD_LM_201_057_N.png,0,0,0,0,3,93,378,70,,,,,,,,,,,,,,,,,,,,,,,,2023-04-07_19h41.14.656,FaceAttractiveness,2022.2.5,142.76210405936706,
treatment,0% Never,100% Always,"images\ NASALTIP_CFD_WF_002_004_N.png
",0,0,0,0,3,94,379,72,,,,,,,,,,,,,,,,,,,,,,,,2023-04-07_19h41.14.656,FaceAttractiveness,2022.2.5,142.76210405936706,
treatment,0% Never,100% Always,images\ NASALTIP_CFD_LM_203_026_N.png,0,0,0,0,4,0,380,71,,,,,,,,,,,,,,,,,,,,,,,,2023-04-07_19h41.14.656,FaceAttractiveness,2022.2.5,142.76210405936706,
treatment,0% Never,100% Always,images\FOREHEAD_006_M_F_N_A.png,0,0,0,0,4,1,381,0,,,,,,,,,,,,,,,,,,,,,,,,2023-04-07_19h41.14.656,FaceAttractiveness,2022.2.5,142.76210405936706,
treatment,0% Never,100% Always,images\ LCHEEK_CFD_BF_224_002_N.png,0,0,0,0,4,2,382,28,,,,,,,,,,,,,,,,,,,,,,,,2023-04-07_19h41.14.656,FaceAttractiveness,2022.2.5,142.76210405936706,
treatment,0% Never,100% Always,images\ LCHEEK_CFD_LM_203_026_N.png,0,0,0,0,4,3,383,33,,,,,,,,,,,,,,,,,,,,,,,,2023-04-07_19h41.14.656,FaceAttractiveness,2022.2.5,142.76210405936706,
treatment,0% Never,100% Always,images\ LIP_CFD_WF_250_167_N.png,0,0,0,0,4,4,384,55,,,,,,,,,,,,,,,,,,,,,,,,2023-04-07_19h41.14.656,FaceAttractiveness,2022.2.5,142.76210405936706,
treatment,0% Never,100% Always,images\ LIP_CFD_LM_201_057_N.png,0,0,0,0,4,5,385,51,,,,,,,,,,,,,,,,,,,,,,,,2023-04-07_19h41.14.656,FaceAttractiveness,2022.2.5,142.76210405936706,
treatment,0% Never,100% Always,images\ RCHEEK_CFD_BM_213_134_N.png,0,0,0,0,4,6,386,86,,,,,,,,,,,,,,,,,,,,,,,,2023-04-07_19h41.14.656,FaceAttractiveness,2022.2.5,142.76210405936706,
treatment,0% Never,100% Always,images\ NASALTIP_CFD_BF_214_308_N.png,0,0,0,0,4,7,387,65,,,,,,,,,,,,,,,,,,,,,,,,2023-04-07_19h41.14.656,FaceAttractiveness,2022.2.5,142.76210405936706,
treatment,0% Never,100% Always,images\ LIP_CFD_LM_203_026_N.png,0,0,0,0,4,8,388,52,,,,,,,,,,,,,,,,,,,,,,,,2023-04-07_19h41.14.656,FaceAttractiveness,2022.2.5,142.76210405936706,
treatment,0% Never,100% Always,images\ RCHEEK_CFD_AF_245_143_N.png,0,0,0,0,4,9,389,82,,,,,,,,,,,,,,,,,,,,,,,,2023-04-07_19h41.14.656,FaceAttractiveness,2022.2.5,142.76210405936706,
treatment,0% Never,100% Always,"images\ LIP_136_M_M_N_A.png
",0,0,0,0,4,10,390,41,,,,,,,,,,,,,,,,,,,,,,,,2023-04-07_19h41.14.656,FaceAttractiveness,2022.2.5,142.76210405936706,
treatment,0% Never,100% Always,"images\ RCHEEK_CFD_BM_234_172_N.png
",0,0,0,0,4,11,391,87,,,,,,,,,,,,,,,,,,,,,,,,2023-04-07_19h41.14.656,FaceAttractiveness,2022.2.5,142.76210405936706,
treatment,0% Never,100% Always,images\FOREHEAD_CFD_AF_245_143_N.png,0,0,0,0,4,12,392,6,,,,,,,,,,,,,,,,,,,,,,,,2023-04-07_19h41.14.656,FaceAttractiveness,2022.2.5,142.76210405936706,
treatment,0% Never,100% Always,images\FOREHEAD_136_M_M_N_A.png,0,0,0,0,4,13,393,3,,,,,,,,,,,,,,,,,,,,,,,,2023-04-07_19h41.14.656,FaceAttractiveness,2022.2.5,142.76210405936706,
treatment,0% Never,100% Always,images\ LIP_CFD_WF_200_099_N.png,0,0,0,0,4,14,394,54,,,,,,,,,,,,,,,,,,,,,,,,2023-04-07_19h41.14.656,FaceAttractiveness,2022.2.5,142.76210405936706,
treatment,0% Never,100% Always,images\FOREHEAD_CFD_LM_201_057_N.png,0,0,0,0,4,15,395,13,,,,,,,,,,,,,,,,,,,,,,,,2023-04-07_19h41.14.656,FaceAttractiveness,2022.2.5,142.76210405936706,
treatment,0% Never,100% Always,images\ LIP_CFD_BF_214_308_N.png,0,0,0,0,4,16,396,46,,,,,,,,,,,,,,,,,,,,,,,,2023-04-07_19h41.14.656,FaceAttractiveness,2022.2.5,142.76210405936706,
treatment,0% Never,100% Always,images\ RCHEEK_CFD_WF_200_099_N.png,0,0,0,0,4,17,397,92,,,,,,,,,,,,,,,,,,,,,,,,2023-04-07_19h41.14.656,FaceAttractiveness,2022.2.5,142.76210405936706,
treatment,0% Never,100% Always,images\ LCHEEK_006_M_F_N_A.png,0,0,0,0,4,18,398,19,,,,,,,,,,,,,,,,,,,,,,,,2023-04-07_19h41.14.656,FaceAttractiveness,2022.2.5,142.76210405936706,
treatment,0% Never,100% Always,"images\ LIP_CFD_WF_002_004_N.png
",0,0,0,0,4,19,399,53,,,,,,,,,,,,,,,,,,,,,,,,2023-04-07_19h41.14.656,FaceAttractiveness,2022.2.5,142.76210405936706,
treatment,0% Never,100% Always,images\ NASALTIP_CFD_WM_212_097_N.png,0,0,0,0,4,20,400,75,,,,,,,,,,,,,,,,,,,,,,,,2023-04-07_19h41.14.656,FaceAttractiveness,2022.2.5,142.76210405936706,
treatment,0% Never,100% Always,images\FOREHEAD_CFD_BM_234_172_N.png,0,0,0,0,4,21,401,11,,,,,,,,,,,,,,,,,,,,,,,,2023-04-07_19h41.14.656,FaceAttractiveness,2022.2.5,142.76210405936706,
treatment,0% Never,100% Always,"images\ RCHEEK_CFD_WF_002_004_N.png
",0,0,0,0,4,22,402,91,,,,,,,,,,,,,,,,,,,,,,,,2023-04-07_19h41.14.656,FaceAttractiveness,2022.2.5,142.76210405936706,
treatment,0% Never,100% Always,images\ LIP_CFD_BF_224_002_N.png,0,0,0,0,4,23,403,47,,,,,,,,,,,,,,,,,,,,,,,,2023-04-07_19h41.14.656,FaceAttractiveness,2022.2.5,142.76210405936706,
treatment,0% Never,100% Always,"images\ RCHEEK_136_M_M_N_A.png
",0,0,0,0,4,24,404,79,,,,,,,,,,,,,,,,,,,,,,,,2023-04-07_19h41.14.656,FaceAttractiveness,2022.2.5,142.76210405936706,
treatment,0% Never,100% Always,images\ NASALTIP_CFD_AF_237_223_N.png,0,0,0,0,4,25,405,62,,,,,,,,,,,,,,,,,,,,,,,,2023-04-07_19h41.14.656,FaceAttractiveness,2022.2.5,142.76210405936706,
treatment,0% Never,100% Always,images\ RCHEEK_035_M_F_N_A.png,0,0,0,0,4,26,406,77,,,,,,,,,,,,,,,,,,,,,,,,2023-04-07_19h41.14.656,FaceAttractiveness,2022.2.5,142.76210405936706,
treatment,0% Never,100% Always,images\ NASALTIP_CFD_WF_200_099_N.png,0,0,0,0,4,27,407,73,,,,,,,,,,,,,,,,,,,,,,,,2023-04-07_19h41.14.656,FaceAttractiveness,2022.2.5,142.76210405936706,
treatment,0% Never,100% Always,images\ RCHEEK_CFD_BF_224_002_N.png,0,0,0,0,4,28,408,85,,,,,,,,,,,,,,,,,,,,,,,,2023-04-07_19h41.14.656,FaceAttractiveness,2022.2.5,142.76210405936706,
treatment,0% Never,100% Always,images\ RCHEEK_CFD_AF_237_223_N.png,0,0,0,0,4,29,409,81,,,,,,,,,,,,,,,,,,,,,,,,2023-04-07_19h41.14.656,FaceAttractiveness,2022.2.5,142.76210405936706,
treatment,0% Never,100% Always,images\FOREHEAD_CFD_LM_203_026_N.png,0,0,0,0,4,30,410,14,,,,,,,,,,,,,,,,,,,,,,,,2023-04-07_19h41.14.656,FaceAttractiveness,2022.2.5,142.76210405936706,
treatment,0% Never,100% Always,images\ NASALTIP_CFD_WF_250_167_N.png,0,0,0,0,4,31,411,74,,,,,,,,,,,,,,,,,,,,,,,,2023-04-07_19h41.14.656,FaceAttractiveness,2022.2.5,142.76210405936706,
treatment,0% Never,100% Always,images\ LIP_006_M_F_N_A.png,0,0,0,0,4,32,412,38,,,,,,,,,,,,,,,,,,,,,,,,2023-04-07_19h41.14.656,FaceAttractiveness,2022.2.5,142.76210405936706,
treatment,0% Never,100% Always,images\ LCHEEK_CFD_LF_224_176_N.png,0,0,0,0,4,33,413,31,,,,,,,,,,,,,,,,,,,,,,,,2023-04-07_19h41.14.656,FaceAttractiveness,2022.2.5,142.76210405936706,
treatment,0% Never,100% Always,images\ LCHEEK_035_M_F_N_A.png,0,0,0,0,4,34,414,20,,,,,,,,,,,,,,,,,,,,,,,,2023-04-07_19h41.14.656,FaceAttractiveness,2022.2.5,142.76210405936706,
treatment,0% Never,100% Always,images\ RCHEEK_006_M_F_N_A.png,0,0,0,0,4,35,415,76,,,,,,,,,,,,,,,,,,,,,,,,2023-04-07_19h41.14.656,FaceAttractiveness,2022.2.5,142.76210405936706,
treatment,0% Never,100% Always,"images\ LCHEEK_CFD_WF_002_004_N.png
",0,0,0,0,4,36,416,34,,,,,,,,,,,,,,,,,,,,,,,,2023-04-07_19h41.14.656,FaceAttractiveness,2022.2.5,142.76210405936706,
treatment,0% Never,100% Always,"images\ LIP_CFD_BM_234_172_N.png
",0,0,0,0,4,37,417,49,,,,,,,,,,,,,,,,,,,,,,,,2023-04-07_19h41.14.656,FaceAttractiveness,2022.2.5,142.76210405936706,
treatment,0% Never,100% Always,images\FOREHEAD_CFD_WF_002_004_N.png,0,0,0,0,4,38,418,15,,,,,,,,,,,,,,,,,,,,,,,,2023-04-07_19h41.14.656,FaceAttractiveness,2022.2.5,142.76210405936706,
treatment,0% Never,100% Always,images\ LCHEEK_CFD_BM_213_134_N.png,0,0,0,0,4,39,419,29,,,,,,,,,,,,,,,,,,,,,,,,2023-04-07_19h41.14.656,FaceAttractiveness,2022.2.5,142.76210405936706,
treatment,0% Never,100% Always,images\FOREHEAD_CFD_BF_214_308_N.png,0,0,0,0,4,40,420,8,,,,,,,,,,,,,,,,,,,,,,,,2023-04-07_19h41.14.656,FaceAttractiveness,2022.2.5,142.76210405936706,
treatment,0% Never,100% Always,images\ LIP_035_M_F_N_A.png,0,0,0,0,4,41,421,39,,,,,,,,,,,,,,,,,,,,,,,,2023-04-07_19h41.14.656,FaceAttractiveness,2022.2.5,142.76210405936706,
treatment,0% Never,100% Always,"images\ RCHEEK_CFD_AM_233_236_N.png
",0,0,0,0,4,42,422,83,,,,,,,,,,,,,,,,,,,,,,,,2023-04-07_19h41.14.656,FaceAttractiveness,2022.2.5,142.76210405936706,
treatment,0% Never,100% Always,images\ NASALTIP_087_M_M_N_A.png,0,0,0,0,4,43,423,59,,,,,,,,,,,,,,,,,,,,,,,,2023-04-07_19h41.14.656,FaceAttractiveness,2022.2.5,142.76210405936706,
treatment,0% Never,100% Always,images\ LIP_CFD_BM_213_134_N.png,0,0,0,0,4,44,424,48,,,,,,,,,,,,,,,,,,,,,,,,2023-04-07_19h41.14.656,FaceAttractiveness,2022.2.5,142.76210405936706,
treatment,0% Never,100% Always,images\FOREHEAD_CFD_WM_212_097_N.png,0,0,0,0,4,45,425,18,,,,,,,,,,,,,,,,,,,,,,,,2023-04-07_19h41.14.656,FaceAttractiveness,2022.2.5,142.76210405936706,
treatment,0% Never,100% Always,"images\ NASALTIP_CFD_BM_234_172_N.png
",0,0,0,0,4,46,426,68,,,,,,,,,,,,,,,,,,,,,,,,2023-04-07_19h41.14.656,FaceAttractiveness,2022.2.5,142.76210405936706,
treatment,0% Never,100% Always,images\ NASALTIP_006_M_F_N_A.png,0,0,0,0,4,47,427,57,,,,,,,,,,,,,,,,,,,,,,,,2023-04-07_19h41.14.656,FaceAttractiveness,2022.2.5,142.76210405936706,
treatment,0% Never,100% Always,images\ LCHEEK_CFD_WF_200_099_N.png,0,0,0,0,4,48,428,35,,,,,,,,,,,,,,,,,,,,,,,,2023-04-07_19h41.14.656,FaceAttractiveness,2022.2.5,142.76210405936706,
treatment,0% Never,100% Always,images\FOREHEAD_035_M_F_N_A.png,0,0,0,0,4,49,429,1,,,,,,,,,,,,,,,,,,,,,,,,2023-04-07_19h41.14.656,FaceAttractiveness,2022.2.5,142.76210405936706,
treatment,0% Never,100% Always,images\FOREHEAD_CFD_AF_231_357_N.png,0,0,0,0,4,50,430,4,,,,,,,,,,,,,,,,,,,,,,,,2023-04-07_19h41.14.656,FaceAttractiveness,2022.2.5,142.76210405936706,
treatment,0% Never,100% Always,images\ RCHEEK_CFD_WM_212_097_N.png,0,0,0,0,4,51,431,94,,,,,,,,,,,,,,,,,,,,,,,,2023-04-07_19h41.14.656,FaceAttractiveness,2022.2.5,142.76210405936706,
treatment,0% Never,100% Always,images\ LCHEEK_CFD_AF_237_223_N.png,0,0,0,0,4,52,432,24,,,,,,,,,,,,,,,,,,,,,,,,2023-04-07_19h41.14.656,FaceAttractiveness,2022.2.5,142.76210405936706,
treatment,0% Never,100% Always,images\ LIP_087_M_M_N_A.png,0,0,0,0,4,53,433,40,,,,,,,,,,,,,,,,,,,,,,,,2023-04-07_19h41.14.656,FaceAttractiveness,2022.2.5,142.76210405936706,
treatment,0% Never,100% Always,images\FOREHEAD_CFD_WF_200_099_N.png,0,0,0,0,4,54,434,16,,,,,,,,,,,,,,,,,,,,,,,,2023-04-07_19h41.14.656,FaceAttractiveness,2022.2.5,142.76210405936706,
treatment,0% Never,100% Always,images\ LIP_CFD_LF_224_176_N.png,0,0,0,0,4,55,435,50,,,,,,,,,,,,,,,,,,,,,,,,2023-04-07_19h41.14.656,FaceAttractiveness,2022.2.5,142.76210405936706,
treatment,0% Never,100% Always,images\ RCHEEK_CFD_LF_224_176_N.png,0,0,0,0,4,56,436,88,,,,,,,,,,,,,,,,,,,,,,,,2023-04-07_19h41.14.656,FaceAttractiveness,2022.2.5,142.76210405936706,
treatment,0% Never,100% Always,images\ NASALTIP_CFD_LF_224_176_N.png,0,0,0,0,4,57,437,69,,,,,,,,,,,,,,,,,,,,,,,,2023-04-07_19h41.14.656,FaceAttractiveness,2022.2.5,142.76210405936706,
treatment,0% Never,100% Always,images\ LCHEEK_CFD_AF_245_143_N.png,0,0,0,0,4,58,438,25,,,,,,,,,,,,,,,,,,,,,,,,2023-04-07_19h41.14.656,FaceAttractiveness,2022.2.5,142.76210405936706,
treatment,0% Never,100% Always,images\ NASALTIP_CFD_BF_224_002_N.png,0,0,0,0,4,59,439,66,,,,,,,,,,,,,,,,,,,,,,,,2023-04-07_19h41.14.656,FaceAttractiveness,2022.2.5,142.76210405936706,
treatment,0% Never,100% Always,"images\ LCHEEK_CFD_AM_233_236_N.png
",0,0,0,0,4,60,440,26,,,,,,,,,,,,,,,,,,,,,,,,2023-04-07_19h41.14.656,FaceAttractiveness,2022.2.5,142.76210405936706,
treatment,0% Never,100% Always,"images\ NASALTIP_CFD_WF_002_004_N.png
",0,0,0,0,4,61,441,72,,,,,,,,,,,,,,,,,,,,,,,,2023-04-07_19h41.14.656,FaceAttractiveness,2022.2.5,142.76210405936706,
treatment,0% Never,100% Always,images\ NASALTIP_CFD_AF_231_357_N.png,0,0,0,0,4,62,442,61,,,,,,,,,,,,,,,,,,,,,,,,2023-04-07_19h41.14.656,FaceAttractiveness,2022.2.5,142.76210405936706,
treatment,0% Never,100% Always,images\ NASALTIP_CFD_BM_213_134_N.png,0,0,0,0,4,63,443,67,,,,,,,,,,,,,,,,,,,,,,,,2023-04-07_19h41.14.656,FaceAttractiveness,2022.2.5,142.76210405936706,
treatment,0% Never,100% Always,images\ LIP_CFD_AF_237_223_N.png,0,0,0,0,4,64,444,43,,,,,,,,,,,,,,,,,,,,,,,,2023-04-07_19h41.14.656,FaceAttractiveness,2022.2.5,142.76210405936706,
treatment,0% Never,100% Always,images\FOREHEAD_087_M_M_N_A.png,0,0,0,0,4,65,445,2,,,,,,,,,,,,,,,,,,,,,,,,2023-04-07_19h41.14.656,FaceAttractiveness,2022.2.5,142.76210405936706,
treatment,0% Never,100% Always,images\ LCHEEK_CFD_BF_214_308_N.png,0,0,0,0,4,66,446,27,,,,,,,,,,,,,,,,,,,,,,,,2023-04-07_19h41.14.656,FaceAttractiveness,2022.2.5,142.76210405936706,
treatment,0% Never,100% Always,images\ LCHEEK_CFD_WF_250_167_N.png,0,0,0,0,4,67,447,36,,,,,,,,,,,,,,,,,,,,,,,,2023-04-07_19h41.14.656,FaceAttractiveness,2022.2.5,142.76210405936706,
treatment,0% Never,100% Always,images\ RCHEEK_087_M_M_N_A.png,0,0,0,0,4,68,448,78,,,,,,,,,,,,,,,,,,,,,,,,2023-04-07_19h41.14.656,FaceAttractiveness,2022.2.5,142.76210405936706,
treatment,0% Never,100% Always,"images\ LCHEEK_136_M_M_N_A.png
",0,0,0,0,4,69,449,22,,,,,,,,,,,,,,,,,,,,,,,,2023-04-07_19h41.14.656,FaceAttractiveness,2022.2.5,142.76210405936706,
treatment,0% Never,100% Always,images\ LIP_CFD_WM_212_097_N.png,0,0,0,0,4,70,450,56,,,,,,,,,,,,,,,,,,,,,,,,2023-04-07_19h41.14.656,FaceAttractiveness,2022.2.5,142.76210405936706,
treatment,0% Never,100% Always,images\ RCHEEK_CFD_LM_201_057_N.png,0,0,0,0,4,71,451,89,,,,,,,,,,,,,,,,,,,,,,,,2023-04-07_19h41.14.656,FaceAttractiveness,2022.2.5,142.76210405936706,
treatment,0% Never,100% Always,images\ LCHEEK_CFD_AF_231_357_N.png,0,0,0,0,4,72,452,23,,,,,,,,,,,,,,,,,,,,,,,,2023-04-07_19h41.14.656,FaceAttractiveness,2022.2.5,142.76210405936706,
treatment,0% Never,100% Always,images\ RCHEEK_CFD_AF_231_357_N.png,0,0,0,0,4,73,453,80,,,,,,,,,,,,,,,,,,,,,,,,2023-04-07_19h41.14.656,FaceAttractiveness,2022.2.5,142.76210405936706,
treatment,0% Never,100% Always,images\ RCHEEK_CFD_LM_203_026_N.png,0,0,0,0,4,74,454,90,,,,,,,,,,,,,,,,,,,,,,,,2023-04-07_19h41.14.656,FaceAttractiveness,2022.2.5,142.76210405936706,
treatment,0% Never,100% Always,"images\ NASALTIP_CFD_AM_233_236_N.png
",0,0,0,0,4,75,455,64,,,,,,,,,,,,,,,,,,,,,,,,2023-04-07_19h41.14.656,FaceAttractiveness,2022.2.5,142.76210405936706,
treatment,0% Never,100% Always,images\FOREHEAD_CFD_AF_237_223_N.png,0,0,0,0,4,76,456,5,,,,,,,,,,,,,,,,,,,,,,,,2023-04-07_19h41.14.656,FaceAttractiveness,2022.2.5,142.76210405936706,
treatment,0% Never,100% Always,images\FOREHEAD_CFD_AM_233_236_N.png,0,0,0,0,4,77,457,7,,,,,,,,,,,,,,,,,,,,,,,,2023-04-07_19h41.14.656,FaceAttractiveness,2022.2.5,142.76210405936706,
treatment,0% Never,100% Always,images\ RCHEEK_CFD_BF_214_308_N.png,0,0,0,0,4,78,458,84,,,,,,,,,,,,,,,,,,,,,,,,2023-04-07_19h41.14.656,FaceAttractiveness,2022.2.5,142.76210405936706,
treatment,0% Never,100% Always,"images\ NASALTIP_136_M_M_N_A.png
",0,0,0,0,4,79,459,60,,,,,,,,,,,,,,,,,,,,,,,,2023-04-07_19h41.14.656,FaceAttractiveness,2022.2.5,142.76210405936706,
treatment,0% Never,100% Always,images\ LCHEEK_087_M_M_N_A.png,0,0,0,0,4,80,460,21,,,,,,,,,,,,,,,,,,,,,,,,2023-04-07_19h41.14.656,FaceAttractiveness,2022.2.5,142.76210405936706,
treatment,0% Never,100% Always,images\ NASALTIP_CFD_LM_201_057_N.png,0,0,0,0,4,81,461,70,,,,,,,,,,,,,,,,,,,,,,,,2023-04-07_19h41.14.656,FaceAttractiveness,2022.2.5,142.76210405936706,
treatment,0% Never,100% Always,images\FOREHEAD_CFD_BM_213_134_N.png,0,0,0,0,4,82,462,10,,,,,,,,,,,,,,,,,,,,,,,,2023-04-07_19h41.14.656,FaceAttractiveness,2022.2.5,142.76210405936706,
treatment,0% Never,100% Always,images\FOREHEAD_CFD_LF_224_176_N.png,0,0,0,0,4,83,463,12,,,,,,,,,,,,,,,,,,,,,,,,2023-04-07_19h41.14.656,FaceAttractiveness,2022.2.5,142.76210405936706,
treatment,0% Never,100% Always,"images\ LCHEEK_CFD_BM_234_172_N.png
",0,0,0,0,4,84,464,30,,,,,,,,,,,,,,,,,,,,,,,,2023-04-07_19h41.14.656,FaceAttractiveness,2022.2.5,142.76210405936706,
treatment,0% Never,100% Always,images\ LCHEEK_CFD_LM_201_057_N.png,0,0,0,0,4,85,465,32,,,,,,,,,,,,,,,,,,,,,,,,2023-04-07_19h41.14.656,FaceAttractiveness,2022.2.5,142.76210405936706,
treatment,0% Never,100% Always,images\ RCHEEK_CFD_WF_250_167_N.png,0,0,0,0,4,86,466,93,,,,,,,,,,,,,,,,,,,,,,,,2023-04-07_19h41.14.656,FaceAttractiveness,2022.2.5,142.76210405936706,
treatment,0% Never,100% Always,images\ LCHEEK_CFD_WM_212_097_N.png,0,0,0,0,4,87,467,37,,,,,,,,,,,,,,,,,,,,,,,,2023-04-07_19h41.14.656,FaceAttractiveness,2022.2.5,142.76210405936706,
treatment,0% Never,100% Always,images\ LIP_CFD_AF_245_143_N.png,0,0,0,0,4,88,468,44,,,,,,,,,,,,,,,,,,,,,,,,2023-04-07_19h41.14.656,FaceAttractiveness,2022.2.5,142.76210405936706,
treatment,0% Never,100% Always,images\ LIP_CFD_AF_231_357_N.png,0,0,0,0,4,89,469,42,,,,,,,,,,,,,,,,,,,,,,,,2023-04-07_19h41.14.656,FaceAttractiveness,2022.2.5,142.76210405936706,
treatment,0% Never,100% Always,"images\ LIP_CFD_AM_233_236_N.png
",0,0,0,0,4,90,470,45,,,,,,,,,,,,,,,,,,,,,,,,2023-04-07_19h41.14.656,FaceAttractiveness,2022.2.5,142.76210405936706,
treatment,0% Never,100% Always,images\FOREHEAD_CFD_BF_224_002_N.png,0,0,0,0,4,91,471,9,,,,,,,,,,,,,,,,,,,,,,,,2023-04-07_19h41.14.656,FaceAttractiveness,2022.2.5,142.76210405936706,
treatment,0% Never,100% Always,images\FOREHEAD_CFD_WF_250_167_N.png,0,0,0,0,4,92,472,17,,,,,,,,,,,,,,,,,,,,,,,,2023-04-07_19h41.14.656,FaceAttractiveness,2022.2.5,142.76210405936706,
treatment,0% Never,100% Always,images\ NASALTIP_CFD_AF_245_143_N.png,0,0,0,0,4,93,473,63,,,,,,,,,,,,,,,,,,,,,,,,2023-04-07_19h41.14.656,FaceAttractiveness,2022.2.5,142.76210405936706,
treatment,0% Never,100% Always,images\ NASALTIP_035_M_F_N_A.png,0,0,0,0,4,94,474,58,,,,,,,,,,,,,,,,,,,,,,,,2023-04-07_19h41.14.656,FaceAttractiveness,2022.2.5,142.76210405936706,
treatment,0% Never,100% Always,"images\ LIP_CFD_BM_234_172_N.png
",0,0,0,0,5,0,475,49,,,,,,,,,,,,,,,,,,,,,,,,2023-04-07_19h41.14.656,FaceAttractiveness,2022.2.5,142.76210405936706,
treatment,0% Never,100% Always,images\ LCHEEK_087_M_M_N_A.png,0,0,0,0,5,1,476,21,,,,,,,,,,,,,,,,,,,,,,,,2023-04-07_19h41.14.656,FaceAttractiveness,2022.2.5,142.76210405936706,
treatment,0% Never,100% Always,images\FOREHEAD_CFD_LM_203_026_N.png,0,0,0,0,5,2,477,14,,,,,,,,,,,,,,,,,,,,,,,,2023-04-07_19h41.14.656,FaceAttractiveness,2022.2.5,142.76210405936706,
treatment,0% Never,100% Always,images\ NASALTIP_087_M_M_N_A.png,0,0,0,0,5,3,478,59,,,,,,,,,,,,,,,,,,,,,,,,2023-04-07_19h41.14.656,FaceAttractiveness,2022.2.5,142.76210405936706,
treatment,0% Never,100% Always,"images\ LIP_CFD_AM_233_236_N.png
",0,0,0,0,5,4,479,45,,,,,,,,,,,,,,,,,,,,,,,,2023-04-07_19h41.14.656,FaceAttractiveness,2022.2.5,142.76210405936706,
treatment,0% Never,100% Always,images\ LIP_CFD_AF_237_223_N.png,0,0,0,0,5,5,480,43,,,,,,,,,,,,,,,,,,,,,,,,2023-04-07_19h41.14.656,FaceAttractiveness,2022.2.5,142.76210405936706,
treatment,0% Never,100% Always,images\ LCHEEK_CFD_WF_200_099_N.png,0,0,0,0,5,6,481,35,,,,,,,,,,,,,,,,,,,,,,,,2023-04-07_19h41.14.656,FaceAttractiveness,2022.2.5,142.76210405936706,
treatment,0% Never,100% Always,images\FOREHEAD_CFD_LM_201_057_N.png,0,0,0,0,5,7,482,13,,,,,,,,,,,,,,,,,,,,,,,,2023-04-07_19h41.14.656,FaceAttractiveness,2022.2.5,142.76210405936706,
treatment,0% Never,100% Always,images\ RCHEEK_CFD_WM_212_097_N.png,0,0,0,0,5,8,483,94,,,,,,,,,,,,,,,,,,,,,,,,2023-04-07_19h41.14.656,FaceAttractiveness,2022.2.5,142.76210405936706,
treatment,0% Never,100% Always,images\ LCHEEK_CFD_BF_214_308_N.png,0,0,0,0,5,9,484,27,,,,,,,,,,,,,,,,,,,,,,,,2023-04-07_19h41.14.656,FaceAttractiveness,2022.2.5,142.76210405936706,
treatment,0% Never,100% Always,images\FOREHEAD_006_M_F_N_A.png,0,0,0,0,5,10,485,0,,,,,,,,,,,,,,,,,,,,,,,,2023-04-07_19h41.14.656,FaceAttractiveness,2022.2.5,142.76210405936706,
treatment,0% Never,100% Always,images\FOREHEAD_CFD_AF_245_143_N.png,0,0,0,0,5,11,486,6,,,,,,,,,,,,,,,,,,,,,,,,2023-04-07_19h41.14.656,FaceAttractiveness,2022.2.5,142.76210405936706,
treatment,0% Never,100% Always,images\FOREHEAD_CFD_LF_224_176_N.png,0,0,0,0,5,12,487,12,,,,,,,,,,,,,,,,,,,,,,,,2023-04-07_19h41.14.656,FaceAttractiveness,2022.2.5,142.76210405936706,
treatment,0% Never,100% Always,images\FOREHEAD_CFD_BM_213_134_N.png,0,0,0,0,5,13,488,10,,,,,,,,,,,,,,,,,,,,,,,,2023-04-07_19h41.14.656,FaceAttractiveness,2022.2.5,142.76210405936706,
treatment,0% Never,100% Always,"images\ NASALTIP_CFD_WF_002_004_N.png
",0,0,0,0,5,14,489,72,,,,,,,,,,,,,,,,,,,,,,,,2023-04-07_19h41.14.656,FaceAttractiveness,2022.2.5,142.76210405936706,
treatment,0% Never,100% Always,images\ NASALTIP_CFD_AF_231_357_N.png,0,0,0,0,5,15,490,61,,,,,,,,,,,,,,,,,,,,,,,,2023-04-07_19h41.14.656,FaceAttractiveness,2022.2.5,142.76210405936706,
treatment,0% Never,100% Always,images\ RCHEEK_006_M_F_N_A.png,0,0,0,0,5,16,491,76,,,,,,,,,,,,,,,,,,,,,,,,2023-04-07_19h41.14.656,FaceAttractiveness,2022.2.5,142.76210405936706,
treatment,0% Never,100% Always,images\FOREHEAD_CFD_AF_237_223_N.png,0,0,0,0,5,17,492,5,,,,,,,,,,,,,,,,,,,,,,,,2023-04-07_19h41.14.656,FaceAttractiveness,2022.2.5,142.76210405936706,
treatment,0% Never,100% Always,images\ RCHEEK_CFD_WF_200_099_N.png,0,0,0,0,5,18,493,92,,,,,,,,,,,,,,,,,,,,,,,,2023-04-07_19h41.14.656,FaceAttractiveness,2022.2.5,142.76210405936706,
treatment,0% Never,100% Always,images\ NASALTIP_CFD_BF_224_002_N.png,0,0,0,0,5,19,494,66,,,,,,,,,,,,,,,,,,,,,,,,2023-04-07_19h41.14.656,FaceAttractiveness,2022.2.5,142.76210405936706,
treatment,0% Never,100% Always,images\ RCHEEK_087_M_M_N_A.png,0,0,0,0,5,20,495,78,,,,,,,,,,,,,,,,,,,,,,,,2023-04-07_19h41.14.656,FaceAttractiveness,2022.2.5,142.76210405936706,
treatment,0% Never,100% Always,images\FOREHEAD_CFD_BF_214_308_N.png,0,0,0,0,5,21,496,8,,,,,,,,,,,,,,,,,,,,,,,,2023-04-07_19h41.14.656,FaceAttractiveness,2022.2.5,142.76210405936706,
treatment,0% Never,100% Always,images\ NASALTIP_CFD_AF_237_223_N.png,0,0,0,0,5,22,497,62,,,,,,,,,,,,,,,,,,,,,,,,2023-04-07_19h41.14.656,FaceAttractiveness,2022.2.5,142.76210405936706,
treatment,0% Never,100% Always,images\ RCHEEK_CFD_BF_224_002_N.png,0,0,0,0,5,23,498,85,,,,,,,,,,,,,,,,,,,,,,,,2023-04-07_19h41.14.656,FaceAttractiveness,2022.2.5,142.76210405936706,
treatment,0% Never,100% Always,images\ NASALTIP_CFD_AF_245_143_N.png,0,0,0,0,5,24,499,63,,,,,,,,,,,,,,,,,,,,,,,,2023-04-07_19h41.14.656,FaceAttractiveness,2022.2.5,142.76210405936706,
treatment,0% Never,100% Always,images\ RCHEEK_CFD_LF_224_176_N.png,0,0,0,0,5,25,500,88,,,,,,,,,,,,,,,,,,,,,,,,2023-04-07_19h41.14.656,FaceAttractiveness,2022.2.5,142.76210405936706,
treatment,0% Never,100% Always,images\FOREHEAD_CFD_BF_224_002_N.png,0,0,0,0,5,26,501,9,,,,,,,,,,,,,,,,,,,,,,,,2023-04-07_19h41.14.656,FaceAttractiveness,2022.2.5,142.76210405936706,
treatment,0% Never,100% Always,"images\ RCHEEK_136_M_M_N_A.png
",0,0,0,0,5,27,502,79,,,,,,,,,,,,,,,,,,,,,,,,2023-04-07_19h41.14.656,FaceAttractiveness,2022.2.5,142.76210405936706,
treatment,0% Never,100% Always,images\ NASALTIP_CFD_BM_213_134_N.png,0,0,0,0,5,28,503,67,,,,,,,,,,,,,,,,,,,,,,,,2023-04-07_19h41.14.656,FaceAttractiveness,2022.2.5,142.76210405936706,
treatment,0% Never,100% Always,"images\ LCHEEK_CFD_AM_233_236_N.png
",0,0,0,0,5,29,504,26,,,,,,,,,,,,,,,,,,,,,,,,2023-04-07_19h41.14.656,FaceAttractiveness,2022.2.5,142.76210405936706,
treatment,0% Never,100% Always,"images\ LCHEEK_CFD_BM_234_172_N.png
",0,0,0,0,5,30,505,30,,,,,,,,,,,,,,,,,,,,,,,,2023-04-07_19h41.14.656,FaceAttractiveness,2022.2.5,142.76210405936706,
treatment,0% Never,100% Always,images\ NASALTIP_CFD_LF_224_176_N.png,0,0,0,0,5,31,506,69,,,,,,,,,,,,,,,,,,,,,,,,2023-04-07_19h41.14.656,FaceAttractiveness,2022.2.5,142.76210405936706,
treatment,0% Never,100% Always,"images\ LIP_CFD_WF_002_004_N.png
",0,0,0,0,5,32,507,53,,,,,,,,,,,,,,,,,,,,,,,,2023-04-07_19h41.14.656,FaceAttractiveness,2022.2.5,142.76210405936706,
treatment,0% Never,100% Always,images\ LIP_CFD_BF_224_002_N.png,0,0,0,0,5,33,508,47,,,,,,,,,,,,,,,,,,,,,,,,2023-04-07_19h41.14.656,FaceAttractiveness,2022.2.5,142.76210405936706,
treatment,0% Never,100% Always,images\ LCHEEK_CFD_BF_224_002_N.png,0,0,0,0,5,34,509,28,,,,,,,,,,,,,,,,,,,,,,,,2023-04-07_19h41.14.656,FaceAttractiveness,2022.2.5,142.76210405936706,
treatment,0% Never,100% Always,images\FOREHEAD_CFD_AF_231_357_N.png,0,0,0,0,5,35,510,4,,,,,,,,,,,,,,,,,,,,,,,,2023-04-07_19h41.14.656,FaceAttractiveness,2022.2.5,142.76210405936706,
treatment,0% Never,100% Always,images\ LIP_CFD_BM_213_134_N.png,0,0,0,0,5,36,511,48,,,,,,,,,,,,,,,,,,,,,,,,2023-04-07_19h41.14.656,FaceAttractiveness,2022.2.5,142.76210405936706,
treatment,0% Never,100% Always,images\ RCHEEK_CFD_AF_237_223_N.png,0,0,0,0,5,37,512,81,,,,,,,,,,,,,,,,,,,,,,,,2023-04-07_19h41.14.656,FaceAttractiveness,2022.2.5,142.76210405936706,
treatment,0% Never,100% Always,images\ NASALTIP_CFD_LM_203_026_N.png,0,0,0,0,5,38,513,71,,,,,,,,,,,,,,,,,,,,,,,,2023-04-07_19h41.14.656,FaceAttractiveness,2022.2.5,142.76210405936706,
treatment,0% Never,100% Always,images\ RCHEEK_CFD_AF_231_357_N.png,0,0,0,0,5,39,514,80,,,,,,,,,,,,,,,,,,,,,,,,2023-04-07_19h41.14.656,FaceAttractiveness,2022.2.5,142.76210405936706,
treatment,0% Never,100% Always,images\FOREHEAD_CFD_WF_250_167_N.png,0,0,0,0,5,40,515,17,,,,,,,,,,,,,,,,,,,,,,,,2023-04-07_19h41.14.656,FaceAttractiveness,2022.2.5,142.76210405936706,
treatment,0% Never,100% Always,images\ NASALTIP_CFD_LM_201_057_N.png,0,0,0,0,5,41,516,70,,,,,,,,,,,,,,,,,,,,,,,,2023-04-07_19h41.14.656,FaceAttractiveness,2022.2.5,142.76210405936706,
treatment,0% Never,100% Always,images\ LIP_035_M_F_N_A.png,0,0,0,0,5,42,517,39,,,,,,,,,,,,,,,,,,,,,,,,2023-04-07_19h41.14.656,FaceAttractiveness,2022.2.5,142.76210405936706,
treatment,0% Never,100% Always,"images\ LCHEEK_CFD_WF_002_004_N.png
",0,0,0,0,5,43,518,34,,,,,,,,,,,,,,,,,,,,,,,,2023-04-07_19h41.14.656,FaceAttractiveness,2022.2.5,142.76210405936706,
treatment,0% Never,100% Always,images\ LCHEEK_CFD_AF_231_357_N.png,0,0,0,0,5,44,519,23,,,,,,,,,,,,,,,,,,,,,,,,2023-04-07_19h41.14.656,FaceAttractiveness,2022.2.5,142.76210405936706,
treatment,0% Never,100% Always,images\ LIP_CFD_AF_245_143_N.png,0,0,0,0,5,45,520,44,,,,,,,,,,,,,,,,,,,,,,,,2023-04-07_19h41.14.656,FaceAttractiveness,2022.2.5,142.76210405936706,
treatment,0% Never,100% Always,"images\ NASALTIP_CFD_AM_233_236_N.png
",0,0,0,0,5,46,521,64,,,,,,,,,,,,,,,,,,,,,,,,2023-04-07_19h41.14.656,FaceAttractiveness,2022.2.5,142.76210405936706,
treatment,0% Never,100% Always,images\ LCHEEK_CFD_AF_245_143_N.png,0,0,0,0,5,47,522,25,,,,,,,,,,,,,,,,,,,,,,,,2023-04-07_19h41.14.656,FaceAttractiveness,2022.2.5,142.76210405936706,
treatment,0% Never,100% Always,images\ LCHEEK_CFD_WF_250_167_N.png,0,0,0,0,5,48,523,36,,,,,,,,,,,,,,,,,,,,,,,,2023-04-07_19h41.14.656,FaceAttractiveness,2022.2.5,142.76210405936706,
treatment,0% Never,100% Always,images\ RCHEEK_CFD_WF_250_167_N.png,0,0,0,0,5,49,524,93,,,,,,,,,,,,,,,,,,,,,,,,2023-04-07_19h41.14.656,FaceAttractiveness,2022.2.5,142.76210405936706,
treatment,0% Never,100% Always,images\ NASALTIP_035_M_F_N_A.png,0,0,0,0,5,50,525,58,,,,,,,,,,,,,,,,,,,,,,,,2023-04-07_19h41.14.656,FaceAttractiveness,2022.2.5,142.76210405936706,
treatment,0% Never,100% Always,images\ LCHEEK_CFD_BM_213_134_N.png,0,0,0,0,5,51,526,29,,,,,,,,,,,,,,,,,,,,,,,,2023-04-07_19h41.14.656,FaceAttractiveness,2022.2.5,142.76210405936706,
treatment,0% Never,100% Always,images\ LCHEEK_CFD_LF_224_176_N.png,0,0,0,0,5,52,527,31,,,,,,,,,,,,,,,,,,,,,,,,2023-04-07_19h41.14.656,FaceAttractiveness,2022.2.5,142.76210405936706,
treatment,0% Never,100% Always,images\ RCHEEK_CFD_LM_201_057_N.png,0,0,0,0,5,53,528,89,,,,,,,,,,,,,,,,,,,,,,,,2023-04-07_19h41.14.656,FaceAttractiveness,2022.2.5,142.76210405936706,
treatment,0% Never,100% Always,images\FOREHEAD_035_M_F_N_A.png,0,0,0,0,5,54,529,1,,,,,,,,,,,,,,,,,,,,,,,,2023-04-07_19h41.14.656,FaceAttractiveness,2022.2.5,142.76210405936706,
treatment,0% Never,100% Always,images\FOREHEAD_CFD_WF_200_099_N.png,0,0,0,0,5,55,530,16,,,,,,,,,,,,,,,,,,,,,,,,2023-04-07_19h41.14.656,FaceAttractiveness,2022.2.5,142.76210405936706,
treatment,0% Never,100% Always,images\FOREHEAD_CFD_WM_212_097_N.png,0,0,0,0,5,56,531,18,,,,,,,,,,,,,,,,,,,,,,,,2023-04-07_19h41.14.656,FaceAttractiveness,2022.2.5,142.76210405936706,
treatment,0% Never,100% Always,images\ LIP_CFD_WM_212_097_N.png,0,0,0,0,5,57,532,56,,,,,,,,,,,,,,,,,,,,,,,,2023-04-07_19h41.14.656,FaceAttractiveness,2022.2.5,142.76210405936706,
treatment,0% Never,100% Always,images\ NASALTIP_006_M_F_N_A.png,0,0,0,0,5,58,533,57,,,,,,,,,,,,,,,,,,,,,,,,2023-04-07_19h41.14.656,FaceAttractiveness,2022.2.5,142.76210405936706,
treatment,0% Never,100% Always,images\ LCHEEK_035_M_F_N_A.png,0,0,0,0,5,59,534,20,,,,,,,,,,,,,,,,,,,,,,,,2023-04-07_19h41.14.656,FaceAttractiveness,2022.2.5,142.76210405936706,
treatment,0% Never,100% Always,images\ LIP_CFD_WF_200_099_N.png,0,0,0,0,5,60,535,54,,,,,,,,,,,,,,,,,,,,,,,,2023-04-07_19h41.14.656,FaceAttractiveness,2022.2.5,142.76210405936706,
treatment,0% Never,100% Always,images\ LCHEEK_CFD_LM_201_057_N.png,0,0,0,0,5,61,536,32,,,,,,,,,,,,,,,,,,,,,,,,2023-04-07_19h41.14.656,FaceAttractiveness,2022.2.5,142.76210405936706,
treatment,0% Never,100% Always,images\ RCHEEK_CFD_AF_245_143_N.png,0,0,0,0,5,62,537,82,,,,,,,,,,,,,,,,,,,,,,,,2023-04-07_19h41.14.656,FaceAttractiveness,2022.2.5,142.76210405936706,
treatment,0% Never,100% Always,images\FOREHEAD_CFD_BM_234_172_N.png,0,0,0,0,5,63,538,11,,,,,,,,,,,,,,,,,,,,,,,,2023-04-07_19h41.14.656,FaceAttractiveness,2022.2.5,142.76210405936706,
treatment,0% Never,100% Always,images\ RCHEEK_035_M_F_N_A.png,0,0,0,0,5,64,539,77,,,,,,,,,,,,,,,,,,,,,,,,2023-04-07_19h41.14.656,FaceAttractiveness,2022.2.5,142.76210405936706,
treatment,0% Never,100% Always,"images\ LIP_136_M_M_N_A.png
",0,0,0,0,5,65,540,41,,,,,,,,,,,,,,,,,,,,,,,,2023-04-07_19h41.14.656,FaceAttractiveness,2022.2.5,142.76210405936706,
treatment,0% Never,100% Always,"images\ NASALTIP_136_M_M_N_A.png
",0,0,0,0,5,66,541,60,,,,,,,,,,,,,,,,,,,,,,,,2023-04-07_19h41.14.656,FaceAttractiveness,2022.2.5,142.76210405936706,
treatment,0% Never,100% Always,images\FOREHEAD_CFD_AM_233_236_N.png,0,0,0,0,5,67,542,7,,,,,,,,,,,,,,,,,,,,,,,,2023-04-07_19h41.14.656,FaceAttractiveness,2022.2.5,142.76210405936706,
treatment,0% Never,100% Always,"images\ LCHEEK_136_M_M_N_A.png
",0,0,0,0,5,68,543,22,,,,,,,,,,,,,,,,,,,,,,,,2023-04-07_19h41.14.656,FaceAttractiveness,2022.2.5,142.76210405936706,
treatment,0% Never,100% Always,images\ RCHEEK_CFD_BF_214_308_N.png,0,0,0,0,5,69,544,84,,,,,,,,,,,,,,,,,,,,,,,,2023-04-07_19h41.14.656,FaceAttractiveness,2022.2.5,142.76210405936706,
treatment,0% Never,100% Always,"images\ RCHEEK_CFD_BM_234_172_N.png
",0,0,0,0,5,70,545,87,,,,,,,,,,,,,,,,,,,,,,,,2023-04-07_19h41.14.656,FaceAttractiveness,2022.2.5,142.76210405936706,
treatment,0% Never,100% Always,images\ NASALTIP_CFD_WM_212_097_N.png,0,0,0,0,5,71,546,75,,,,,,,,,,,,,,,,,,,,,,,,2023-04-07_19h41.14.656,FaceAttractiveness,2022.2.5,142.76210405936706,
treatment,0% Never,100% Always,images\FOREHEAD_087_M_M_N_A.png,0,0,0,0,5,72,547,2,,,,,,,,,,,,,,,,,,,,,,,,2023-04-07_19h41.14.656,FaceAttractiveness,2022.2.5,142.76210405936706,
