Task,LeftLabel,RightLabel,faceImages,RatingBlockOrder.thisRepN,RatingBlockOrder.thisTrialN,RatingBlockOrder.thisN,RatingBlockOrder.thisIndex,originalFaceTrials.thisRepN,originalFaceTrials.thisTrialN,originalFaceTrials.thisN,originalFaceTrials.thisIndex,face_image_q.started,slider_trustworthy.started,text_trustworthy.started,slider_aggressive.started,text_aggressive.started,Confirm.started,mouse_7.started,Name,Gender,Age,Ethnicity,date,expName,psychopyVersion,frameRate,
treatment,0% Never,100% Always,"images\ LIP_CFD_BM_234_172_N.png
",0,0,0,0,0,0,0,49,,,,,,,,,,,,2023-04-07_19h51.49.465,FaceAttractiveness,2022.2.5,144.75299346898925,
treatment,0% Never,100% Always,images\ LIP_CFD_BF_214_308_N.png,0,0,0,0,0,1,1,46,,,,,,,,,,,,2023-04-07_19h51.49.465,FaceAttractiveness,2022.2.5,144.75299346898925,
treatment,0% Never,100% Always,images\FOREHEAD_087_M_M_N_A.png,0,0,0,0,0,2,2,2,,,,,,,,,,,,2023-04-07_19h51.49.465,FaceAttractiveness,2022.2.5,144.75299346898925,
treatment,0% Never,100% Always,images\ NASALTIP_035_M_F_N_A.png,0,0,0,0,0,3,3,58,,,,,,,,,,,,2023-04-07_19h51.49.465,FaceAttractiveness,2022.2.5,144.75299346898925,
treatment,0% Never,100% Always,images\ LIP_087_M_M_N_A.png,0,0,0,0,0,4,4,40,,,,,,,,,,,,2023-04-07_19h51.49.465,FaceAttractiveness,2022.2.5,144.75299346898925,
treatment,0% Never,100% Always,images\FOREHEAD_CFD_LM_201_057_N.png,0,0,0,0,0,5,5,13,,,,,,,,,,,,2023-04-07_19h51.49.465,FaceAttractiveness,2022.2.5,144.75299346898925,
treatment,0% Never,100% Always,images\ NASALTIP_CFD_BM_213_134_N.png,0,0,0,0,0,6,6,67,,,,,,,,,,,,2023-04-07_19h51.49.465,FaceAttractiveness,2022.2.5,144.75299346898925,
treatment,0% Never,100% Always,images\ LIP_CFD_WM_212_097_N.png,0,0,0,0,0,7,7,56,,,,,,,,,,,,2023-04-07_19h51.49.465,FaceAttractiveness,2022.2.5,144.75299346898925,
treatment,0% Never,100% Always,images\ LIP_CFD_LM_201_057_N.png,0,0,0,0,0,8,8,51,,,,,,,,,,,,2023-04-07_19h51.49.465,FaceAttractiveness,2022.2.5,144.75299346898925,
treatment,0% Never,100% Always,"images\ RCHEEK_136_M_M_N_A.png
",0,0,0,0,0,9,9,79,,,,,,,,,,,,2023-04-07_19h51.49.465,FaceAttractiveness,2022.2.5,144.75299346898925,
treatment,0% Never,100% Always,images\ NASALTIP_CFD_LM_203_026_N.png,0,0,0,0,0,10,10,71,,,,,,,,,,,,2023-04-07_19h51.49.465,FaceAttractiveness,2022.2.5,144.75299346898925,
treatment,0% Never,100% Always,images\ LIP_CFD_AF_231_357_N.png,0,0,0,0,0,11,11,42,,,,,,,,,,,,2023-04-07_19h51.49.465,FaceAttractiveness,2022.2.5,144.75299346898925,
treatment,0% Never,100% Always,"images\ LCHEEK_CFD_BM_234_172_N.png
",0,0,0,0,0,12,12,30,,,,,,,,,,,,2023-04-07_19h51.49.465,FaceAttractiveness,2022.2.5,144.75299346898925,
treatment,0% Never,100% Always,images\ RCHEEK_CFD_BM_213_134_N.png,0,0,0,0,0,13,13,86,,,,,,,,,,,,2023-04-07_19h51.49.465,FaceAttractiveness,2022.2.5,144.75299346898925,
treatment,0% Never,100% Always,images\ NASALTIP_CFD_AF_237_223_N.png,0,0,0,0,0,14,14,62,,,,,,,,,,,,2023-04-07_19h51.49.465,FaceAttractiveness,2022.2.5,144.75299346898925,
treatment,0% Never,100% Always,"images\ RCHEEK_CFD_BM_234_172_N.png
",0,0,0,0,0,15,15,87,,,,,,,,,,,,2023-04-07_19h51.49.465,FaceAttractiveness,2022.2.5,144.75299346898925,
treatment,0% Never,100% Always,images\ NASALTIP_CFD_WF_250_167_N.png,0,0,0,0,0,16,16,74,,,,,,,,,,,,2023-04-07_19h51.49.465,FaceAttractiveness,2022.2.5,144.75299346898925,
treatment,0% Never,100% Always,images\ RCHEEK_CFD_LM_201_057_N.png,0,0,0,0,0,17,17,89,,,,,,,,,,,,2023-04-07_19h51.49.465,FaceAttractiveness,2022.2.5,144.75299346898925,
treatment,0% Never,100% Always,images\ LCHEEK_006_M_F_N_A.png,0,0,0,0,0,18,18,19,,,,,,,,,,,,2023-04-07_19h51.49.465,FaceAttractiveness,2022.2.5,144.75299346898925,
treatment,0% Never,100% Always,"images\ RCHEEK_CFD_AM_233_236_N.png
",0,0,0,0,0,19,19,83,,,,,,,,,,,,2023-04-07_19h51.49.465,FaceAttractiveness,2022.2.5,144.75299346898925,
treatment,0% Never,100% Always,images\ RCHEEK_CFD_WF_250_167_N.png,0,0,0,0,0,20,20,93,,,,,,,,,,,,2023-04-07_19h51.49.465,FaceAttractiveness,2022.2.5,144.75299346898925,
treatment,0% Never,100% Always,images\ RCHEEK_CFD_LF_224_176_N.png,0,0,0,0,0,21,21,88,,,,,,,,,,,,2023-04-07_19h51.49.465,FaceAttractiveness,2022.2.5,144.75299346898925,
treatment,0% Never,100% Always,images\FOREHEAD_136_M_M_N_A.png,0,0,0,0,0,22,22,3,,,,,,,,,,,,2023-04-07_19h51.49.465,FaceAttractiveness,2022.2.5,144.75299346898925,
treatment,0% Never,100% Always,"images\ NASALTIP_CFD_BM_234_172_N.png
",0,0,0,0,0,23,23,68,,,,,,,,,,,,2023-04-07_19h51.49.465,FaceAttractiveness,2022.2.5,144.75299346898925,
treatment,0% Never,100% Always,images\ LCHEEK_CFD_AF_245_143_N.png,0,0,0,0,0,24,24,25,,,,,,,,,,,,2023-04-07_19h51.49.465,FaceAttractiveness,2022.2.5,144.75299346898925,
treatment,0% Never,100% Always,images\FOREHEAD_CFD_AF_237_223_N.png,0,0,0,0,0,25,25,5,,,,,,,,,,,,2023-04-07_19h51.49.465,FaceAttractiveness,2022.2.5,144.75299346898925,
treatment,0% Never,100% Always,"images\ LCHEEK_136_M_M_N_A.png
",0,0,0,0,0,26,26,22,,,,,,,,,,,,2023-04-07_19h51.49.465,FaceAttractiveness,2022.2.5,144.75299346898925,
treatment,0% Never,100% Always,images\ RCHEEK_CFD_LM_203_026_N.png,0,0,0,0,0,27,27,90,,,,,,,,,,,,2023-04-07_19h51.49.465,FaceAttractiveness,2022.2.5,144.75299346898925,
treatment,0% Never,100% Always,images\FOREHEAD_CFD_AF_245_143_N.png,0,0,0,0,0,28,28,6,,,,,,,,,,,,2023-04-07_19h51.49.465,FaceAttractiveness,2022.2.5,144.75299346898925,
treatment,0% Never,100% Always,images\FOREHEAD_CFD_WM_212_097_N.png,0,0,0,0,0,29,29,18,,,,,,,,,,,,2023-04-07_19h51.49.465,FaceAttractiveness,2022.2.5,144.75299346898925,
treatment,0% Never,100% Always,"images\ NASALTIP_136_M_M_N_A.png
",0,0,0,0,0,30,30,60,,,,,,,,,,,,2023-04-07_19h51.49.465,FaceAttractiveness,2022.2.5,144.75299346898925,
treatment,0% Never,100% Always,images\FOREHEAD_CFD_WF_200_099_N.png,0,0,0,0,0,31,31,16,,,,,,,,,,,,2023-04-07_19h51.49.465,FaceAttractiveness,2022.2.5,144.75299346898925,
treatment,0% Never,100% Always,"images\ LCHEEK_CFD_WF_002_004_N.png
",0,0,0,0,0,32,32,34,,,,,,,,,,,,2023-04-07_19h51.49.465,FaceAttractiveness,2022.2.5,144.75299346898925,
treatment,0% Never,100% Always,images\ RCHEEK_CFD_AF_245_143_N.png,0,0,0,0,0,33,33,82,,,,,,,,,,,,2023-04-07_19h51.49.465,FaceAttractiveness,2022.2.5,144.75299346898925,
treatment,0% Never,100% Always,images\ LCHEEK_CFD_AF_231_357_N.png,0,0,0,0,0,34,34,23,,,,,,,,,,,,2023-04-07_19h51.49.465,FaceAttractiveness,2022.2.5,144.75299346898925,
treatment,0% Never,100% Always,images\FOREHEAD_006_M_F_N_A.png,0,0,0,0,0,35,35,0,,,,,,,,,,,,2023-04-07_19h51.49.465,FaceAttractiveness,2022.2.5,144.75299346898925,
treatment,0% Never,100% Always,images\ LIP_035_M_F_N_A.png,0,0,0,0,0,36,36,39,,,,,,,,,,,,2023-04-07_19h51.49.465,FaceAttractiveness,2022.2.5,144.75299346898925,
treatment,0% Never,100% Always,images\ LIP_006_M_F_N_A.png,0,0,0,0,0,37,37,38,,,,,,,,,,,,2023-04-07_19h51.49.465,FaceAttractiveness,2022.2.5,144.75299346898925,
treatment,0% Never,100% Always,images\ LCHEEK_CFD_BM_213_134_N.png,0,0,0,0,0,38,38,29,,,,,,,,,,,,2023-04-07_19h51.49.465,FaceAttractiveness,2022.2.5,144.75299346898925,
treatment,0% Never,100% Always,images\ NASALTIP_CFD_WF_200_099_N.png,0,0,0,0,0,39,39,73,,,,,,,,,,,,2023-04-07_19h51.49.465,FaceAttractiveness,2022.2.5,144.75299346898925,
treatment,0% Never,100% Always,"images\ LIP_CFD_WF_002_004_N.png
",0,0,0,0,0,40,40,53,,,,,,,,,,,,2023-04-07_19h51.49.465,FaceAttractiveness,2022.2.5,144.75299346898925,
treatment,0% Never,100% Always,images\ LIP_CFD_AF_237_223_N.png,0,0,0,0,0,41,41,43,,,,,,,,,,,,2023-04-07_19h51.49.465,FaceAttractiveness,2022.2.5,144.75299346898925,
treatment,0% Never,100% Always,images\ RCHEEK_CFD_BF_224_002_N.png,0,0,0,0,0,42,42,85,,,,,,,,,,,,2023-04-07_19h51.49.465,FaceAttractiveness,2022.2.5,144.75299346898925,
treatment,0% Never,100% Always,images\ RCHEEK_CFD_AF_231_357_N.png,0,0,0,0,0,43,43,80,,,,,,,,,,,,2023-04-07_19h51.49.465,FaceAttractiveness,2022.2.5,144.75299346898925,
treatment,0% Never,100% Always,images\ RCHEEK_CFD_WM_212_097_N.png,0,0,0,0,0,44,44,94,,,,,,,,,,,,2023-04-07_19h51.49.465,FaceAttractiveness,2022.2.5,144.75299346898925,
treatment,0% Never,100% Always,"images\ RCHEEK_CFD_WF_002_004_N.png
",0,0,0,0,0,45,45,91,,,,,,,,,,,,2023-04-07_19h51.49.465,FaceAttractiveness,2022.2.5,144.75299346898925,
treatment,0% Never,100% Always,images\ LIP_CFD_BF_224_002_N.png,0,0,0,0,0,46,46,47,,,,,,,,,,,,2023-04-07_19h51.49.465,FaceAttractiveness,2022.2.5,144.75299346898925,
treatment,0% Never,100% Always,images\ RCHEEK_087_M_M_N_A.png,0,0,0,0,0,47,47,78,,,,,,,,,,,,2023-04-07_19h51.49.465,FaceAttractiveness,2022.2.5,144.75299346898925,
treatment,0% Never,100% Always,images\ NASALTIP_CFD_BF_214_308_N.png,0,0,0,0,0,48,48,65,,,,,,,,,,,,2023-04-07_19h51.49.465,FaceAttractiveness,2022.2.5,144.75299346898925,
treatment,0% Never,100% Always,images\ LCHEEK_035_M_F_N_A.png,0,0,0,0,0,49,49,20,,,,,,,,,,,,2023-04-07_19h51.49.465,FaceAttractiveness,2022.2.5,144.75299346898925,
treatment,0% Never,100% Always,images\ NASALTIP_CFD_LM_201_057_N.png,0,0,0,0,0,50,50,70,,,,,,,,,,,,2023-04-07_19h51.49.465,FaceAttractiveness,2022.2.5,144.75299346898925,
treatment,0% Never,100% Always,images\ NASALTIP_087_M_M_N_A.png,0,0,0,0,0,51,51,59,,,,,,,,,,,,2023-04-07_19h51.49.465,FaceAttractiveness,2022.2.5,144.75299346898925,
treatment,0% Never,100% Always,images\FOREHEAD_CFD_BF_224_002_N.png,0,0,0,0,0,52,52,9,,,,,,,,,,,,2023-04-07_19h51.49.465,FaceAttractiveness,2022.2.5,144.75299346898925,
treatment,0% Never,100% Always,"images\ LCHEEK_CFD_AM_233_236_N.png
",0,0,0,0,0,53,53,26,,,,,,,,,,,,2023-04-07_19h51.49.465,FaceAttractiveness,2022.2.5,144.75299346898925,
treatment,0% Never,100% Always,"images\ LIP_CFD_AM_233_236_N.png
",0,0,0,0,0,54,54,45,,,,,,,,,,,,2023-04-07_19h51.49.465,FaceAttractiveness,2022.2.5,144.75299346898925,
treatment,0% Never,100% Always,images\ LCHEEK_CFD_LF_224_176_N.png,0,0,0,0,0,55,55,31,,,,,,,,,,,,2023-04-07_19h51.49.465,FaceAttractiveness,2022.2.5,144.75299346898925,
treatment,0% Never,100% Always,images\ LCHEEK_CFD_BF_224_002_N.png,0,0,0,0,0,56,56,28,,,,,,,,,,,,2023-04-07_19h51.49.465,FaceAttractiveness,2022.2.5,144.75299346898925,
treatment,0% Never,100% Always,images\FOREHEAD_CFD_AM_233_236_N.png,0,0,0,0,0,57,57,7,,,,,,,,,,,,2023-04-07_19h51.49.465,FaceAttractiveness,2022.2.5,144.75299346898925,
treatment,0% Never,100% Always,images\ NASALTIP_CFD_WM_212_097_N.png,0,0,0,0,0,58,58,75,,,,,,,,,,,,2023-04-07_19h51.49.465,FaceAttractiveness,2022.2.5,144.75299346898925,
treatment,0% Never,100% Always,images\FOREHEAD_CFD_AF_231_357_N.png,0,0,0,0,0,59,59,4,,,,,,,,,,,,2023-04-07_19h51.49.465,FaceAttractiveness,2022.2.5,144.75299346898925,
treatment,0% Never,100% Always,images\ LIP_CFD_WF_200_099_N.png,0,0,0,0,0,60,60,54,,,,,,,,,,,,2023-04-07_19h51.49.465,FaceAttractiveness,2022.2.5,144.75299346898925,
treatment,0% Never,100% Always,images\ NASALTIP_CFD_AF_245_143_N.png,0,0,0,0,0,61,61,63,,,,,,,,,,,,2023-04-07_19h51.49.465,FaceAttractiveness,2022.2.5,144.75299346898925,
treatment,0% Never,100% Always,images\ LIP_CFD_AF_245_143_N.png,0,0,0,0,0,62,62,44,,,,,,,,,,,,2023-04-07_19h51.49.465,FaceAttractiveness,2022.2.5,144.75299346898925,
treatment,0% Never,100% Always,"images\ NASALTIP_CFD_AM_233_236_N.png
",0,0,0,0,0,63,63,64,,,,,,,,,,,,2023-04-07_19h51.49.465,FaceAttractiveness,2022.2.5,144.75299346898925,
treatment,0% Never,100% Always,images\ LCHEEK_CFD_BF_214_308_N.png,0,0,0,0,0,64,64,27,,,,,,,,,,,,2023-04-07_19h51.49.465,FaceAttractiveness,2022.2.5,144.75299346898925,
treatment,0% Never,100% Always,images\FOREHEAD_CFD_BM_234_172_N.png,0,0,0,0,0,65,65,11,,,,,,,,,,,,2023-04-07_19h51.49.465,FaceAttractiveness,2022.2.5,144.75299346898925,
treatment,0% Never,100% Always,images\ LCHEEK_CFD_AF_237_223_N.png,0,0,0,0,0,66,66,24,,,,,,,,,,,,2023-04-07_19h51.49.465,FaceAttractiveness,2022.2.5,144.75299346898925,
treatment,0% Never,100% Always,images\FOREHEAD_CFD_BM_213_134_N.png,0,0,0,0,0,67,67,10,,,,,,,,,,,,2023-04-07_19h51.49.465,FaceAttractiveness,2022.2.5,144.75299346898925,
treatment,0% Never,100% Always,images\ NASALTIP_CFD_BF_224_002_N.png,0,0,0,0,0,68,68,66,,,,,,,,,,,,2023-04-07_19h51.49.465,FaceAttractiveness,2022.2.5,144.75299346898925,
treatment,0% Never,100% Always,images\ NASALTIP_CFD_AF_231_357_N.png,0,0,0,0,0,69,69,61,,,,,,,,,,,,2023-04-07_19h51.49.465,FaceAttractiveness,2022.2.5,144.75299346898925,
treatment,0% Never,100% Always,images\ NASALTIP_006_M_F_N_A.png,0,0,0,0,0,70,70,57,,,,,,,,,,,,2023-04-07_19h51.49.465,FaceAttractiveness,2022.2.5,144.75299346898925,
treatment,0% Never,100% Always,images\ LIP_CFD_LM_203_026_N.png,0,0,0,0,0,71,71,52,,,,,,,,,,,,2023-04-07_19h51.49.465,FaceAttractiveness,2022.2.5,144.75299346898925,
treatment,0% Never,100% Always,images\FOREHEAD_CFD_BF_214_308_N.png,0,0,0,0,0,72,72,8,,,,,,,,,,,,2023-04-07_19h51.49.465,FaceAttractiveness,2022.2.5,144.75299346898925,
treatment,0% Never,100% Always,images\ LIP_CFD_WF_250_167_N.png,0,0,0,0,0,73,73,55,,,,,,,,,,,,2023-04-07_19h51.49.465,FaceAttractiveness,2022.2.5,144.75299346898925,
treatment,0% Never,100% Always,images\ LCHEEK_087_M_M_N_A.png,0,0,0,0,0,74,74,21,,,,,,,,,,,,2023-04-07_19h51.49.465,FaceAttractiveness,2022.2.5,144.75299346898925,
treatment,0% Never,100% Always,images\FOREHEAD_CFD_WF_250_167_N.png,0,0,0,0,0,75,75,17,,,,,,,,,,,,2023-04-07_19h51.49.465,FaceAttractiveness,2022.2.5,144.75299346898925,
treatment,0% Never,100% Always,"images\ LIP_136_M_M_N_A.png
",0,0,0,0,0,76,76,41,,,,,,,,,,,,2023-04-07_19h51.49.465,FaceAttractiveness,2022.2.5,144.75299346898925,
treatment,0% Never,100% Always,images\ RCHEEK_035_M_F_N_A.png,0,0,0,0,0,77,77,77,,,,,,,,,,,,2023-04-07_19h51.49.465,FaceAttractiveness,2022.2.5,144.75299346898925,
treatment,0% Never,100% Always,images\ RCHEEK_006_M_F_N_A.png,0,0,0,0,0,78,78,76,,,,,,,,,,,,2023-04-07_19h51.49.465,FaceAttractiveness,2022.2.5,144.75299346898925,
treatment,0% Never,100% Always,images\ LIP_CFD_LF_224_176_N.png,0,0,0,0,0,79,79,50,,,,,,,,,,,,2023-04-07_19h51.49.465,FaceAttractiveness,2022.2.5,144.75299346898925,
treatment,0% Never,100% Always,images\ RCHEEK_CFD_WF_200_099_N.png,0,0,0,0,0,80,80,92,,,,,,,,,,,,2023-04-07_19h51.49.465,FaceAttractiveness,2022.2.5,144.75299346898925,
treatment,0% Never,100% Always,images\ LCHEEK_CFD_LM_201_057_N.png,0,0,0,0,0,81,81,32,,,,,,,,,,,,2023-04-07_19h51.49.465,FaceAttractiveness,2022.2.5,144.75299346898925,
treatment,0% Never,100% Always,images\ LIP_CFD_BM_213_134_N.png,0,0,0,0,0,82,82,48,,,,,,,,,,,,2023-04-07_19h51.49.465,FaceAttractiveness,2022.2.5,144.75299346898925,
treatment,0% Never,100% Always,"images\ NASALTIP_CFD_WF_002_004_N.png
",0,0,0,0,0,83,83,72,,,,,,,,,,,,2023-04-07_19h51.49.465,FaceAttractiveness,2022.2.5,144.75299346898925,
treatment,0% Never,100% Always,images\ LCHEEK_CFD_LM_203_026_N.png,0,0,0,0,0,84,84,33,,,,,,,,,,,,2023-04-07_19h51.49.465,FaceAttractiveness,2022.2.5,144.75299346898925,
treatment,0% Never,100% Always,images\ NASALTIP_CFD_LF_224_176_N.png,0,0,0,0,0,85,85,69,,,,,,,,,,,,2023-04-07_19h51.49.465,FaceAttractiveness,2022.2.5,144.75299346898925,
treatment,0% Never,100% Always,images\FOREHEAD_CFD_WF_002_004_N.png,0,0,0,0,0,86,86,15,,,,,,,,,,,,2023-04-07_19h51.49.465,FaceAttractiveness,2022.2.5,144.75299346898925,
treatment,0% Never,100% Always,images\ LCHEEK_CFD_WF_200_099_N.png,0,0,0,0,0,87,87,35,,,,,,,,,,,,2023-04-07_19h51.49.465,FaceAttractiveness,2022.2.5,144.75299346898925,
treatment,0% Never,100% Always,images\FOREHEAD_035_M_F_N_A.png,0,0,0,0,0,88,88,1,,,,,,,,,,,,2023-04-07_19h51.49.465,FaceAttractiveness,2022.2.5,144.75299346898925,
treatment,0% Never,100% Always,images\ RCHEEK_CFD_BF_214_308_N.png,0,0,0,0,0,89,89,84,,,,,,,,,,,,2023-04-07_19h51.49.465,FaceAttractiveness,2022.2.5,144.75299346898925,
treatment,0% Never,100% Always,images\ LCHEEK_CFD_WM_212_097_N.png,0,0,0,0,0,90,90,37,,,,,,,,,,,,2023-04-07_19h51.49.465,FaceAttractiveness,2022.2.5,144.75299346898925,
treatment,0% Never,100% Always,images\ LCHEEK_CFD_WF_250_167_N.png,0,0,0,0,0,91,91,36,,,,,,,,,,,,2023-04-07_19h51.49.465,FaceAttractiveness,2022.2.5,144.75299346898925,
treatment,0% Never,100% Always,images\FOREHEAD_CFD_LF_224_176_N.png,0,0,0,0,0,92,92,12,,,,,,,,,,,,2023-04-07_19h51.49.465,FaceAttractiveness,2022.2.5,144.75299346898925,
treatment,0% Never,100% Always,images\FOREHEAD_CFD_LM_203_026_N.png,0,0,0,0,0,93,93,14,,,,,,,,,,,,2023-04-07_19h51.49.465,FaceAttractiveness,2022.2.5,144.75299346898925,
treatment,0% Never,100% Always,images\ RCHEEK_CFD_AF_237_223_N.png,0,0,0,0,0,94,94,81,,,,,,,,,,,,2023-04-07_19h51.49.465,FaceAttractiveness,2022.2.5,144.75299346898925,
treatment,0% Never,100% Always,"images\ RCHEEK_136_M_M_N_A.png
",0,0,0,0,1,0,95,79,,,,,,,,,,,,2023-04-07_19h51.49.465,FaceAttractiveness,2022.2.5,144.75299346898925,
treatment,0% Never,100% Always,images\ LCHEEK_CFD_WF_250_167_N.png,0,0,0,0,1,1,96,36,,,,,,,,,,,,2023-04-07_19h51.49.465,FaceAttractiveness,2022.2.5,144.75299346898925,
treatment,0% Never,100% Always,images\ LIP_CFD_AF_231_357_N.png,0,0,0,0,1,2,97,42,,,,,,,,,,,,2023-04-07_19h51.49.465,FaceAttractiveness,2022.2.5,144.75299346898925,
treatment,0% Never,100% Always,"images\ LCHEEK_CFD_WF_002_004_N.png
",0,0,0,0,1,3,98,34,,,,,,,,,,,,2023-04-07_19h51.49.465,FaceAttractiveness,2022.2.5,144.75299346898925,
treatment,0% Never,100% Always,images\ LIP_CFD_AF_245_143_N.png,0,0,0,0,1,4,99,44,,,,,,,,,,,,2023-04-07_19h51.49.465,FaceAttractiveness,2022.2.5,144.75299346898925,
treatment,0% Never,100% Always,images\FOREHEAD_CFD_WF_200_099_N.png,0,0,0,0,1,5,100,16,,,,,,,,,,,,2023-04-07_19h51.49.465,FaceAttractiveness,2022.2.5,144.75299346898925,
treatment,0% Never,100% Always,images\FOREHEAD_035_M_F_N_A.png,0,0,0,0,1,6,101,1,,,,,,,,,,,,2023-04-07_19h51.49.465,FaceAttractiveness,2022.2.5,144.75299346898925,
treatment,0% Never,100% Always,images\ RCHEEK_006_M_F_N_A.png,0,0,0,0,1,7,102,76,,,,,,,,,,,,2023-04-07_19h51.49.465,FaceAttractiveness,2022.2.5,144.75299346898925,
treatment,0% Never,100% Always,images\ LIP_CFD_LM_203_026_N.png,0,0,0,0,1,8,103,52,,,,,,,,,,,,2023-04-07_19h51.49.465,FaceAttractiveness,2022.2.5,144.75299346898925,
treatment,0% Never,100% Always,images\ LCHEEK_CFD_BF_224_002_N.png,0,0,0,0,1,9,104,28,,,,,,,,,,,,2023-04-07_19h51.49.465,FaceAttractiveness,2022.2.5,144.75299346898925,
treatment,0% Never,100% Always,images\ LCHEEK_CFD_AF_231_357_N.png,0,0,0,0,1,10,105,23,,,,,,,,,,,,2023-04-07_19h51.49.465,FaceAttractiveness,2022.2.5,144.75299346898925,
treatment,0% Never,100% Always,images\ LIP_CFD_BF_214_308_N.png,0,0,0,0,1,11,106,46,,,,,,,,,,,,2023-04-07_19h51.49.465,FaceAttractiveness,2022.2.5,144.75299346898925,
treatment,0% Never,100% Always,images\FOREHEAD_CFD_AF_231_357_N.png,0,0,0,0,1,12,107,4,,,,,,,,,,,,2023-04-07_19h51.49.465,FaceAttractiveness,2022.2.5,144.75299346898925,
treatment,0% Never,100% Always,images\FOREHEAD_CFD_AF_245_143_N.png,0,0,0,0,1,13,108,6,,,,,,,,,,,,2023-04-07_19h51.49.465,FaceAttractiveness,2022.2.5,144.75299346898925,
treatment,0% Never,100% Always,images\ RCHEEK_CFD_LM_203_026_N.png,0,0,0,0,1,14,109,90,,,,,,,,,,,,2023-04-07_19h51.49.465,FaceAttractiveness,2022.2.5,144.75299346898925,
treatment,0% Never,100% Always,images\ LIP_CFD_BF_224_002_N.png,0,0,0,0,1,15,110,47,,,,,,,,,,,,2023-04-07_19h51.49.465,FaceAttractiveness,2022.2.5,144.75299346898925,
treatment,0% Never,100% Always,images\ LIP_CFD_LM_201_057_N.png,0,0,0,0,1,16,111,51,,,,,,,,,,,,2023-04-07_19h51.49.465,FaceAttractiveness,2022.2.5,144.75299346898925,
treatment,0% Never,100% Always,images\ LIP_006_M_F_N_A.png,0,0,0,0,1,17,112,38,,,,,,,,,,,,2023-04-07_19h51.49.465,FaceAttractiveness,2022.2.5,144.75299346898925,
treatment,0% Never,100% Always,images\ LIP_CFD_WM_212_097_N.png,0,0,0,0,1,18,113,56,,,,,,,,,,,,2023-04-07_19h51.49.465,FaceAttractiveness,2022.2.5,144.75299346898925,
treatment,0% Never,100% Always,images\ NASALTIP_087_M_M_N_A.png,0,0,0,0,1,19,114,59,,,,,,,,,,,,2023-04-07_19h51.49.465,FaceAttractiveness,2022.2.5,144.75299346898925,
treatment,0% Never,100% Always,images\ NASALTIP_006_M_F_N_A.png,0,0,0,0,1,20,115,57,,,,,,,,,,,,2023-04-07_19h51.49.465,FaceAttractiveness,2022.2.5,144.75299346898925,
treatment,0% Never,100% Always,images\FOREHEAD_CFD_WF_250_167_N.png,0,0,0,0,1,21,116,17,,,,,,,,,,,,2023-04-07_19h51.49.465,FaceAttractiveness,2022.2.5,144.75299346898925,
treatment,0% Never,100% Always,images\ NASALTIP_CFD_LF_224_176_N.png,0,0,0,0,1,22,117,69,,,,,,,,,,,,2023-04-07_19h51.49.465,FaceAttractiveness,2022.2.5,144.75299346898925,
treatment,0% Never,100% Always,images\ NASALTIP_CFD_AF_231_357_N.png,0,0,0,0,1,23,118,61,,,,,,,,,,,,2023-04-07_19h51.49.465,FaceAttractiveness,2022.2.5,144.75299346898925,
treatment,0% Never,100% Always,images\ LCHEEK_CFD_WF_200_099_N.png,0,0,0,0,1,24,119,35,,,,,,,,,,,,2023-04-07_19h51.49.465,FaceAttractiveness,2022.2.5,144.75299346898925,
treatment,0% Never,100% Always,"images\ LCHEEK_CFD_AM_233_236_N.png
",0,0,0,0,1,25,120,26,,,,,,,,,,,,2023-04-07_19h51.49.465,FaceAttractiveness,2022.2.5,144.75299346898925,
treatment,0% Never,100% Always,"images\ RCHEEK_CFD_AM_233_236_N.png
",0,0,0,0,1,26,121,83,,,,,,,,,,,,2023-04-07_19h51.49.465,FaceAttractiveness,2022.2.5,144.75299346898925,
treatment,0% Never,100% Always,images\ RCHEEK_CFD_WM_212_097_N.png,0,0,0,0,1,27,122,94,,,,,,,,,,,,2023-04-07_19h51.49.465,FaceAttractiveness,2022.2.5,144.75299346898925,
treatment,0% Never,100% Always,images\ NASALTIP_CFD_LM_203_026_N.png,0,0,0,0,1,28,123,71,,,,,,,,,,,,2023-04-07_19h51.49.465,FaceAttractiveness,2022.2.5,144.75299346898925,
treatment,0% Never,100% Always,images\ RCHEEK_087_M_M_N_A.png,0,0,0,0,1,29,124,78,,,,,,,,,,,,2023-04-07_19h51.49.465,FaceAttractiveness,2022.2.5,144.75299346898925,
treatment,0% Never,100% Always,images\ RCHEEK_CFD_BF_214_308_N.png,0,0,0,0,1,30,125,84,,,,,,,,,,,,2023-04-07_19h51.49.465,FaceAttractiveness,2022.2.5,144.75299346898925,
treatment,0% Never,100% Always,images\FOREHEAD_CFD_LF_224_176_N.png,0,0,0,0,1,31,126,12,,,,,,,,,,,,2023-04-07_19h51.49.465,FaceAttractiveness,2022.2.5,144.75299346898925,
treatment,0% Never,100% Always,images\ LIP_CFD_BM_213_134_N.png,0,0,0,0,1,32,127,48,,,,,,,,,,,,2023-04-07_19h51.49.465,FaceAttractiveness,2022.2.5,144.75299346898925,
treatment,0% Never,100% Always,images\FOREHEAD_CFD_WF_002_004_N.png,0,0,0,0,1,33,128,15,,,,,,,,,,,,2023-04-07_19h51.49.465,FaceAttractiveness,2022.2.5,144.75299346898925,
treatment,0% Never,100% Always,images\ LIP_CFD_WF_200_099_N.png,0,0,0,0,1,34,129,54,,,,,,,,,,,,2023-04-07_19h51.49.465,FaceAttractiveness,2022.2.5,144.75299346898925,
treatment,0% Never,100% Always,images\FOREHEAD_087_M_M_N_A.png,0,0,0,0,1,35,130,2,,,,,,,,,,,,2023-04-07_19h51.49.465,FaceAttractiveness,2022.2.5,144.75299346898925,
treatment,0% Never,100% Always,"images\ LCHEEK_CFD_BM_234_172_N.png
",0,0,0,0,1,36,131,30,,,,,,,,,,,,2023-04-07_19h51.49.465,FaceAttractiveness,2022.2.5,144.75299346898925,
treatment,0% Never,100% Always,"images\ NASALTIP_CFD_WF_002_004_N.png
",0,0,0,0,1,37,132,72,,,,,,,,,,,,2023-04-07_19h51.49.465,FaceAttractiveness,2022.2.5,144.75299346898925,
treatment,0% Never,100% Always,"images\ NASALTIP_136_M_M_N_A.png
",0,0,0,0,1,38,133,60,,,,,,,,,,,,2023-04-07_19h51.49.465,FaceAttractiveness,2022.2.5,144.75299346898925,
treatment,0% Never,100% Always,images\ RCHEEK_CFD_LM_201_057_N.png,0,0,0,0,1,39,134,89,,,,,,,,,,,,2023-04-07_19h51.49.465,FaceAttractiveness,2022.2.5,144.75299346898925,
treatment,0% Never,100% Always,images\ LIP_CFD_AF_237_223_N.png,0,0,0,0,1,40,135,43,,,,,,,,,,,,2023-04-07_19h51.49.465,FaceAttractiveness,2022.2.5,144.75299346898925,
treatment,0% Never,100% Always,images\ LCHEEK_CFD_LM_203_026_N.png,0,0,0,0,1,41,136,33,,,,,,,,,,,,2023-04-07_19h51.49.465,FaceAttractiveness,2022.2.5,144.75299346898925,
treatment,0% Never,100% Always,images\ RCHEEK_CFD_WF_250_167_N.png,0,0,0,0,1,42,137,93,,,,,,,,,,,,2023-04-07_19h51.49.465,FaceAttractiveness,2022.2.5,144.75299346898925,
treatment,0% Never,100% Always,images\FOREHEAD_CFD_BM_234_172_N.png,0,0,0,0,1,43,138,11,,,,,,,,,,,,2023-04-07_19h51.49.465,FaceAttractiveness,2022.2.5,144.75299346898925,
treatment,0% Never,100% Always,images\FOREHEAD_CFD_WM_212_097_N.png,0,0,0,0,1,44,139,18,,,,,,,,,,,,2023-04-07_19h51.49.465,FaceAttractiveness,2022.2.5,144.75299346898925,
treatment,0% Never,100% Always,"images\ RCHEEK_CFD_BM_234_172_N.png
",0,0,0,0,1,45,140,87,,,,,,,,,,,,2023-04-07_19h51.49.465,FaceAttractiveness,2022.2.5,144.75299346898925,
treatment,0% Never,100% Always,images\ RCHEEK_CFD_AF_237_223_N.png,0,0,0,0,1,46,141,81,,,,,,,,,,,,2023-04-07_19h51.49.465,FaceAttractiveness,2022.2.5,144.75299346898925,
treatment,0% Never,100% Always,"images\ NASALTIP_CFD_AM_233_236_N.png
",0,0,0,0,1,47,142,64,,,,,,,,,,,,2023-04-07_19h51.49.465,FaceAttractiveness,2022.2.5,144.75299346898925,
treatment,0% Never,100% Always,images\ LCHEEK_CFD_AF_237_223_N.png,0,0,0,0,1,48,143,24,,,,,,,,,,,,2023-04-07_19h51.49.465,FaceAttractiveness,2022.2.5,144.75299346898925,
treatment,0% Never,100% Always,images\ RCHEEK_CFD_BF_224_002_N.png,0,0,0,0,1,49,144,85,,,,,,,,,,,,2023-04-07_19h51.49.465,FaceAttractiveness,2022.2.5,144.75299346898925,
treatment,0% Never,100% Always,images\ RCHEEK_CFD_WF_200_099_N.png,0,0,0,0,1,50,145,92,,,,,,,,,,,,2023-04-07_19h51.49.465,FaceAttractiveness,2022.2.5,144.75299346898925,
treatment,0% Never,100% Always,images\ LIP_CFD_LF_224_176_N.png,0,0,0,0,1,51,146,50,,,,,,,,,,,,2023-04-07_19h51.49.465,FaceAttractiveness,2022.2.5,144.75299346898925,
treatment,0% Never,100% Always,images\ LCHEEK_CFD_AF_245_143_N.png,0,0,0,0,1,52,147,25,,,,,,,,,,,,2023-04-07_19h51.49.465,FaceAttractiveness,2022.2.5,144.75299346898925,
treatment,0% Never,100% Always,images\ LIP_087_M_M_N_A.png,0,0,0,0,1,53,148,40,,,,,,,,,,,,2023-04-07_19h51.49.465,FaceAttractiveness,2022.2.5,144.75299346898925,
treatment,0% Never,100% Always,images\ NASALTIP_CFD_AF_237_223_N.png,0,0,0,0,1,54,149,62,,,,,,,,,,,,2023-04-07_19h51.49.465,FaceAttractiveness,2022.2.5,144.75299346898925,
treatment,0% Never,100% Always,images\ LCHEEK_087_M_M_N_A.png,0,0,0,0,1,55,150,21,,,,,,,,,,,,2023-04-07_19h51.49.465,FaceAttractiveness,2022.2.5,144.75299346898925,
treatment,0% Never,100% Always,images\ NASALTIP_CFD_WF_250_167_N.png,0,0,0,0,1,56,151,74,,,,,,,,,,,,2023-04-07_19h51.49.465,FaceAttractiveness,2022.2.5,144.75299346898925,
treatment,0% Never,100% Always,images\FOREHEAD_CFD_LM_201_057_N.png,0,0,0,0,1,57,152,13,,,,,,,,,,,,2023-04-07_19h51.49.465,FaceAttractiveness,2022.2.5,144.75299346898925,
treatment,0% Never,100% Always,images\ NASALTIP_CFD_LM_201_057_N.png,0,0,0,0,1,58,153,70,,,,,,,,,,,,2023-04-07_19h51.49.465,FaceAttractiveness,2022.2.5,144.75299346898925,
treatment,0% Never,100% Always,images\FOREHEAD_006_M_F_N_A.png,0,0,0,0,1,59,154,0,,,,,,,,,,,,2023-04-07_19h51.49.465,FaceAttractiveness,2022.2.5,144.75299346898925,
treatment,0% Never,100% Always,images\FOREHEAD_CFD_BF_214_308_N.png,0,0,0,0,1,60,155,8,,,,,,,,,,,,2023-04-07_19h51.49.465,FaceAttractiveness,2022.2.5,144.75299346898925,
treatment,0% Never,100% Always,images\FOREHEAD_CFD_AF_237_223_N.png,0,0,0,0,1,61,156,5,,,,,,,,,,,,2023-04-07_19h51.49.465,FaceAttractiveness,2022.2.5,144.75299346898925,
treatment,0% Never,100% Always,"images\ RCHEEK_CFD_WF_002_004_N.png
",0,0,0,0,1,62,157,91,,,,,,,,,,,,2023-04-07_19h51.49.465,FaceAttractiveness,2022.2.5,144.75299346898925,
treatment,0% Never,100% Always,images\ NASALTIP_CFD_BF_224_002_N.png,0,0,0,0,1,63,158,66,,,,,,,,,,,,2023-04-07_19h51.49.465,FaceAttractiveness,2022.2.5,144.75299346898925,
treatment,0% Never,100% Always,"images\ LCHEEK_136_M_M_N_A.png
",0,0,0,0,1,64,159,22,,,,,,,,,,,,2023-04-07_19h51.49.465,FaceAttractiveness,2022.2.5,144.75299346898925,
treatment,0% Never,100% Always,images\ NASALTIP_035_M_F_N_A.png,0,0,0,0,1,65,160,58,,,,,,,,,,,,2023-04-07_19h51.49.465,FaceAttractiveness,2022.2.5,144.75299346898925,
treatment,0% Never,100% Always,images\ LIP_CFD_WF_250_167_N.png,0,0,0,0,1,66,161,55,,,,,,,,,,,,2023-04-07_19h51.49.465,FaceAttractiveness,2022.2.5,144.75299346898925,
treatment,0% Never,100% Always,images\ LCHEEK_035_M_F_N_A.png,0,0,0,0,1,67,162,20,,,,,,,,,,,,2023-04-07_19h51.49.465,FaceAttractiveness,2022.2.5,144.75299346898925,
treatment,0% Never,100% Always,images\FOREHEAD_CFD_BF_224_002_N.png,0,0,0,0,1,68,163,9,,,,,,,,,,,,2023-04-07_19h51.49.465,FaceAttractiveness,2022.2.5,144.75299346898925,
treatment,0% Never,100% Always,images\FOREHEAD_CFD_BM_213_134_N.png,0,0,0,0,1,69,164,10,,,,,,,,,,,,2023-04-07_19h51.49.465,FaceAttractiveness,2022.2.5,144.75299346898925,
treatment,0% Never,100% Always,images\ LIP_035_M_F_N_A.png,0,0,0,0,1,70,165,39,,,,,,,,,,,,2023-04-07_19h51.49.465,FaceAttractiveness,2022.2.5,144.75299346898925,
treatment,0% Never,100% Always,images\FOREHEAD_CFD_LM_203_026_N.png,0,0,0,0,1,71,166,14,,,,,,,,,,,,2023-04-07_19h51.49.465,FaceAttractiveness,2022.2.5,144.75299346898925,
treatment,0% Never,100% Always,images\ RCHEEK_CFD_BM_213_134_N.png,0,0,0,0,1,72,167,86,,,,,,,,,,,,2023-04-07_19h51.49.465,FaceAttractiveness,2022.2.5,144.75299346898925,
treatment,0% Never,100% Always,images\ RCHEEK_CFD_AF_245_143_N.png,0,0,0,0,1,73,168,82,,,,,,,,,,,,2023-04-07_19h51.49.465,FaceAttractiveness,2022.2.5,144.75299346898925,
treatment,0% Never,100% Always,"images\ LIP_CFD_BM_234_172_N.png
",0,0,0,0,1,74,169,49,,,,,,,,,,,,2023-04-07_19h51.49.465,FaceAttractiveness,2022.2.5,144.75299346898925,
treatment,0% Never,100% Always,"images\ LIP_136_M_M_N_A.png
",0,0,0,0,1,75,170,41,,,,,,,,,,,,2023-04-07_19h51.49.465,FaceAttractiveness,2022.2.5,144.75299346898925,
treatment,0% Never,100% Always,"images\ LIP_CFD_WF_002_004_N.png
",0,0,0,0,1,76,171,53,,,,,,,,,,,,2023-04-07_19h51.49.465,FaceAttractiveness,2022.2.5,144.75299346898925,
treatment,0% Never,100% Always,"images\ LIP_CFD_AM_233_236_N.png
",0,0,0,0,1,77,172,45,,,,,,,,,,,,2023-04-07_19h51.49.465,FaceAttractiveness,2022.2.5,144.75299346898925,
treatment,0% Never,100% Always,"images\ NASALTIP_CFD_BM_234_172_N.png
",0,0,0,0,1,78,173,68,,,,,,,,,,,,2023-04-07_19h51.49.465,FaceAttractiveness,2022.2.5,144.75299346898925,
treatment,0% Never,100% Always,images\ LCHEEK_CFD_BF_214_308_N.png,0,0,0,0,1,79,174,27,,,,,,,,,,,,2023-04-07_19h51.49.465,FaceAttractiveness,2022.2.5,144.75299346898925,
treatment,0% Never,100% Always,images\FOREHEAD_136_M_M_N_A.png,0,0,0,0,1,80,175,3,,,,,,,,,,,,2023-04-07_19h51.49.465,FaceAttractiveness,2022.2.5,144.75299346898925,
treatment,0% Never,100% Always,images\ RCHEEK_035_M_F_N_A.png,0,0,0,0,1,81,176,77,,,,,,,,,,,,2023-04-07_19h51.49.465,FaceAttractiveness,2022.2.5,144.75299346898925,
treatment,0% Never,100% Always,images\ RCHEEK_CFD_LF_224_176_N.png,0,0,0,0,1,82,177,88,,,,,,,,,,,,2023-04-07_19h51.49.465,FaceAttractiveness,2022.2.5,144.75299346898925,
treatment,0% Never,100% Always,images\ LCHEEK_006_M_F_N_A.png,0,0,0,0,1,83,178,19,,,,,,,,,,,,2023-04-07_19h51.49.465,FaceAttractiveness,2022.2.5,144.75299346898925,
treatment,0% Never,100% Always,images\ RCHEEK_CFD_AF_231_357_N.png,0,0,0,0,1,84,179,80,,,,,,,,,,,,2023-04-07_19h51.49.465,FaceAttractiveness,2022.2.5,144.75299346898925,
treatment,0% Never,100% Always,images\ NASALTIP_CFD_BM_213_134_N.png,0,0,0,0,1,85,180,67,,,,,,,,,,,,2023-04-07_19h51.49.465,FaceAttractiveness,2022.2.5,144.75299346898925,
treatment,0% Never,100% Always,images\ LCHEEK_CFD_LF_224_176_N.png,0,0,0,0,1,86,181,31,,,,,,,,,,,,2023-04-07_19h51.49.465,FaceAttractiveness,2022.2.5,144.75299346898925,
treatment,0% Never,100% Always,images\ NASALTIP_CFD_WM_212_097_N.png,0,0,0,0,1,87,182,75,,,,,,,,,,,,2023-04-07_19h51.49.465,FaceAttractiveness,2022.2.5,144.75299346898925,
treatment,0% Never,100% Always,images\ LCHEEK_CFD_LM_201_057_N.png,0,0,0,0,1,88,183,32,,,,,,,,,,,,2023-04-07_19h51.49.465,FaceAttractiveness,2022.2.5,144.75299346898925,
treatment,0% Never,100% Always,images\FOREHEAD_CFD_AM_233_236_N.png,0,0,0,0,1,89,184,7,,,,,,,,,,,,2023-04-07_19h51.49.465,FaceAttractiveness,2022.2.5,144.75299346898925,
treatment,0% Never,100% Always,images\ LCHEEK_CFD_BM_213_134_N.png,0,0,0,0,1,90,185,29,,,,,,,,,,,,2023-04-07_19h51.49.465,FaceAttractiveness,2022.2.5,144.75299346898925,
treatment,0% Never,100% Always,images\ NASALTIP_CFD_AF_245_143_N.png,0,0,0,0,1,91,186,63,,,,,,,,,,,,2023-04-07_19h51.49.465,FaceAttractiveness,2022.2.5,144.75299346898925,
treatment,0% Never,100% Always,images\ LCHEEK_CFD_WM_212_097_N.png,0,0,0,0,1,92,187,37,,,,,,,,,,,,2023-04-07_19h51.49.465,FaceAttractiveness,2022.2.5,144.75299346898925,
treatment,0% Never,100% Always,images\ NASALTIP_CFD_WF_200_099_N.png,0,0,0,0,1,93,188,73,,,,,,,,,,,,2023-04-07_19h51.49.465,FaceAttractiveness,2022.2.5,144.75299346898925,
treatment,0% Never,100% Always,images\ NASALTIP_CFD_BF_214_308_N.png,0,0,0,0,1,94,189,65,,,,,,,,,,,,2023-04-07_19h51.49.465,FaceAttractiveness,2022.2.5,144.75299346898925,
treatment,0% Never,100% Always,images\ NASALTIP_CFD_WF_200_099_N.png,0,0,0,0,2,0,190,73,,,,,,,,,,,,2023-04-07_19h51.49.465,FaceAttractiveness,2022.2.5,144.75299346898925,
treatment,0% Never,100% Always,images\ RCHEEK_CFD_WM_212_097_N.png,0,0,0,0,2,1,191,94,,,,,,,,,,,,2023-04-07_19h51.49.465,FaceAttractiveness,2022.2.5,144.75299346898925,
treatment,0% Never,100% Always,images\ LIP_CFD_AF_231_357_N.png,0,0,0,0,2,2,192,42,,,,,,,,,,,,2023-04-07_19h51.49.465,FaceAttractiveness,2022.2.5,144.75299346898925,
treatment,0% Never,100% Always,images\FOREHEAD_035_M_F_N_A.png,0,0,0,0,2,3,193,1,,,,,,,,,,,,2023-04-07_19h51.49.465,FaceAttractiveness,2022.2.5,144.75299346898925,
treatment,0% Never,100% Always,images\ LIP_CFD_LF_224_176_N.png,0,0,0,0,2,4,194,50,,,,,,,,,,,,2023-04-07_19h51.49.465,FaceAttractiveness,2022.2.5,144.75299346898925,
treatment,0% Never,100% Always,images\ RCHEEK_087_M_M_N_A.png,0,0,0,0,2,5,195,78,,,,,,,,,,,,2023-04-07_19h51.49.465,FaceAttractiveness,2022.2.5,144.75299346898925,
treatment,0% Never,100% Always,images\ RCHEEK_CFD_LF_224_176_N.png,0,0,0,0,2,6,196,88,,,,,,,,,,,,2023-04-07_19h51.49.465,FaceAttractiveness,2022.2.5,144.75299346898925,
treatment,0% Never,100% Always,images\FOREHEAD_CFD_BM_213_134_N.png,0,0,0,0,2,7,197,10,,,,,,,,,,,,2023-04-07_19h51.49.465,FaceAttractiveness,2022.2.5,144.75299346898925,
treatment,0% Never,100% Always,images\ LCHEEK_CFD_WM_212_097_N.png,0,0,0,0,2,8,198,37,,,,,,,,,,,,2023-04-07_19h51.49.465,FaceAttractiveness,2022.2.5,144.75299346898925,
treatment,0% Never,100% Always,images\ LIP_CFD_BF_224_002_N.png,0,0,0,0,2,9,199,47,,,,,,,,,,,,2023-04-07_19h51.49.465,FaceAttractiveness,2022.2.5,144.75299346898925,
treatment,0% Never,100% Always,"images\ RCHEEK_136_M_M_N_A.png
",0,0,0,0,2,10,200,79,,,,,,,,,,,,2023-04-07_19h51.49.465,FaceAttractiveness,2022.2.5,144.75299346898925,
treatment,0% Never,100% Always,"images\ LIP_136_M_M_N_A.png
",0,0,0,0,2,11,201,41,,,,,,,,,,,,2023-04-07_19h51.49.465,FaceAttractiveness,2022.2.5,144.75299346898925,
treatment,0% Never,100% Always,"images\ NASALTIP_136_M_M_N_A.png
",0,0,0,0,2,12,202,60,,,,,,,,,,,,2023-04-07_19h51.49.465,FaceAttractiveness,2022.2.5,144.75299346898925,
treatment,0% Never,100% Always,"images\ RCHEEK_CFD_AM_233_236_N.png
",0,0,0,0,2,13,203,83,,,,,,,,,,,,2023-04-07_19h51.49.465,FaceAttractiveness,2022.2.5,144.75299346898925,
treatment,0% Never,100% Always,images\FOREHEAD_CFD_BF_214_308_N.png,0,0,0,0,2,14,204,8,,,,,,,,,,,,2023-04-07_19h51.49.465,FaceAttractiveness,2022.2.5,144.75299346898925,
treatment,0% Never,100% Always,images\FOREHEAD_CFD_WF_250_167_N.png,0,0,0,0,2,15,205,17,,,,,,,,,,,,2023-04-07_19h51.49.465,FaceAttractiveness,2022.2.5,144.75299346898925,
treatment,0% Never,100% Always,images\ LIP_CFD_WF_200_099_N.png,0,0,0,0,2,16,206,54,,,,,,,,,,,,2023-04-07_19h51.49.465,FaceAttractiveness,2022.2.5,144.75299346898925,
treatment,0% Never,100% Always,"images\ NASALTIP_CFD_AM_233_236_N.png
",0,0,0,0,2,17,207,64,,,,,,,,,,,,2023-04-07_19h51.49.465,FaceAttractiveness,2022.2.5,144.75299346898925,
treatment,0% Never,100% Always,images\ LIP_035_M_F_N_A.png,0,0,0,0,2,18,208,39,,,,,,,,,,,,2023-04-07_19h51.49.465,FaceAttractiveness,2022.2.5,144.75299346898925,
treatment,0% Never,100% Always,images\ LCHEEK_CFD_LM_203_026_N.png,0,0,0,0,2,19,209,33,,,,,,,,,,,,2023-04-07_19h51.49.465,FaceAttractiveness,2022.2.5,144.75299346898925,
treatment,0% Never,100% Always,images\FOREHEAD_CFD_WM_212_097_N.png,0,0,0,0,2,20,210,18,,,,,,,,,,,,2023-04-07_19h51.49.465,FaceAttractiveness,2022.2.5,144.75299346898925,
treatment,0% Never,100% Always,images\FOREHEAD_136_M_M_N_A.png,0,0,0,0,2,21,211,3,,,,,,,,,,,,2023-04-07_19h51.49.465,FaceAttractiveness,2022.2.5,144.75299346898925,
treatment,0% Never,100% Always,images\FOREHEAD_006_M_F_N_A.png,0,0,0,0,2,22,212,0,,,,,,,,,,,,2023-04-07_19h51.49.465,FaceAttractiveness,2022.2.5,144.75299346898925,
treatment,0% Never,100% Always,images\FOREHEAD_CFD_LM_201_057_N.png,0,0,0,0,2,23,213,13,,,,,,,,,,,,2023-04-07_19h51.49.465,FaceAttractiveness,2022.2.5,144.75299346898925,
treatment,0% Never,100% Always,images\ RCHEEK_CFD_BM_213_134_N.png,0,0,0,0,2,24,214,86,,,,,,,,,,,,2023-04-07_19h51.49.465,FaceAttractiveness,2022.2.5,144.75299346898925,
treatment,0% Never,100% Always,images\FOREHEAD_CFD_BF_224_002_N.png,0,0,0,0,2,25,215,9,,,,,,,,,,,,2023-04-07_19h51.49.465,FaceAttractiveness,2022.2.5,144.75299346898925,
treatment,0% Never,100% Always,images\ LCHEEK_CFD_BM_213_134_N.png,0,0,0,0,2,26,216,29,,,,,,,,,,,,2023-04-07_19h51.49.465,FaceAttractiveness,2022.2.5,144.75299346898925,
treatment,0% Never,100% Always,images\ LIP_006_M_F_N_A.png,0,0,0,0,2,27,217,38,,,,,,,,,,,,2023-04-07_19h51.49.465,FaceAttractiveness,2022.2.5,144.75299346898925,
treatment,0% Never,100% Always,images\ NASALTIP_CFD_LM_203_026_N.png,0,0,0,0,2,28,218,71,,,,,,,,,,,,2023-04-07_19h51.49.465,FaceAttractiveness,2022.2.5,144.75299346898925,
treatment,0% Never,100% Always,images\ LCHEEK_CFD_LF_224_176_N.png,0,0,0,0,2,29,219,31,,,,,,,,,,,,2023-04-07_19h51.49.465,FaceAttractiveness,2022.2.5,144.75299346898925,
treatment,0% Never,100% Always,"images\ NASALTIP_CFD_BM_234_172_N.png
",0,0,0,0,2,30,220,68,,,,,,,,,,,,2023-04-07_19h51.49.465,FaceAttractiveness,2022.2.5,144.75299346898925,
treatment,0% Never,100% Always,images\ LIP_CFD_AF_245_143_N.png,0,0,0,0,2,31,221,44,,,,,,,,,,,,2023-04-07_19h51.49.465,FaceAttractiveness,2022.2.5,144.75299346898925,
treatment,0% Never,100% Always,images\ LIP_CFD_BM_213_134_N.png,0,0,0,0,2,32,222,48,,,,,,,,,,,,2023-04-07_19h51.49.465,FaceAttractiveness,2022.2.5,144.75299346898925,
treatment,0% Never,100% Always,images\ NASALTIP_006_M_F_N_A.png,0,0,0,0,2,33,223,57,,,,,,,,,,,,2023-04-07_19h51.49.465,FaceAttractiveness,2022.2.5,144.75299346898925,
treatment,0% Never,100% Always,"images\ LCHEEK_CFD_BM_234_172_N.png
",0,0,0,0,2,34,224,30,,,,,,,,,,,,2023-04-07_19h51.49.465,FaceAttractiveness,2022.2.5,144.75299346898925,
treatment,0% Never,100% Always,images\FOREHEAD_CFD_BM_234_172_N.png,0,0,0,0,2,35,225,11,,,,,,,,,,,,2023-04-07_19h51.49.465,FaceAttractiveness,2022.2.5,144.75299346898925,
treatment,0% Never,100% Always,images\FOREHEAD_CFD_AF_237_223_N.png,0,0,0,0,2,36,226,5,,,,,,,,,,,,2023-04-07_19h51.49.465,FaceAttractiveness,2022.2.5,144.75299346898925,
treatment,0% Never,100% Always,images\ LCHEEK_CFD_BF_224_002_N.png,0,0,0,0,2,37,227,28,,,,,,,,,,,,2023-04-07_19h51.49.465,FaceAttractiveness,2022.2.5,144.75299346898925,
treatment,0% Never,100% Always,images\ NASALTIP_CFD_BF_214_308_N.png,0,0,0,0,2,38,228,65,,,,,,,,,,,,2023-04-07_19h51.49.465,FaceAttractiveness,2022.2.5,144.75299346898925,
treatment,0% Never,100% Always,images\ RCHEEK_006_M_F_N_A.png,0,0,0,0,2,39,229,76,,,,,,,,,,,,2023-04-07_19h51.49.465,FaceAttractiveness,2022.2.5,144.75299346898925,
treatment,0% Never,100% Always,images\ RCHEEK_CFD_LM_201_057_N.png,0,0,0,0,2,40,230,89,,,,,,,,,,,,2023-04-07_19h51.49.465,FaceAttractiveness,2022.2.5,144.75299346898925,
treatment,0% Never,100% Always,images\ LIP_CFD_LM_203_026_N.png,0,0,0,0,2,41,231,52,,,,,,,,,,,,2023-04-07_19h51.49.465,FaceAttractiveness,2022.2.5,144.75299346898925,
treatment,0% Never,100% Always,images\ LCHEEK_CFD_LM_201_057_N.png,0,0,0,0,2,42,232,32,,,,,,,,,,,,2023-04-07_19h51.49.465,FaceAttractiveness,2022.2.5,144.75299346898925,
treatment,0% Never,100% Always,images\ NASALTIP_CFD_BM_213_134_N.png,0,0,0,0,2,43,233,67,,,,,,,,,,,,2023-04-07_19h51.49.465,FaceAttractiveness,2022.2.5,144.75299346898925,
treatment,0% Never,100% Always,images\FOREHEAD_CFD_WF_002_004_N.png,0,0,0,0,2,44,234,15,,,,,,,,,,,,2023-04-07_19h51.49.465,FaceAttractiveness,2022.2.5,144.75299346898925,
treatment,0% Never,100% Always,images\ LCHEEK_CFD_AF_245_143_N.png,0,0,0,0,2,45,235,25,,,,,,,,,,,,2023-04-07_19h51.49.465,FaceAttractiveness,2022.2.5,144.75299346898925,
treatment,0% Never,100% Always,"images\ LIP_CFD_AM_233_236_N.png
",0,0,0,0,2,46,236,45,,,,,,,,,,,,2023-04-07_19h51.49.465,FaceAttractiveness,2022.2.5,144.75299346898925,
treatment,0% Never,100% Always,images\ RCHEEK_CFD_WF_200_099_N.png,0,0,0,0,2,47,237,92,,,,,,,,,,,,2023-04-07_19h51.49.465,FaceAttractiveness,2022.2.5,144.75299346898925,
treatment,0% Never,100% Always,images\FOREHEAD_CFD_WF_200_099_N.png,0,0,0,0,2,48,238,16,,,,,,,,,,,,2023-04-07_19h51.49.465,FaceAttractiveness,2022.2.5,144.75299346898925,
treatment,0% Never,100% Always,"images\ LIP_CFD_BM_234_172_N.png
",0,0,0,0,2,49,239,49,,,,,,,,,,,,2023-04-07_19h51.49.465,FaceAttractiveness,2022.2.5,144.75299346898925,
treatment,0% Never,100% Always,images\ LIP_CFD_WM_212_097_N.png,0,0,0,0,2,50,240,56,,,,,,,,,,,,2023-04-07_19h51.49.465,FaceAttractiveness,2022.2.5,144.75299346898925,
treatment,0% Never,100% Always,images\ LCHEEK_CFD_WF_250_167_N.png,0,0,0,0,2,51,241,36,,,,,,,,,,,,2023-04-07_19h51.49.465,FaceAttractiveness,2022.2.5,144.75299346898925,
treatment,0% Never,100% Always,images\ NASALTIP_CFD_WF_250_167_N.png,0,0,0,0,2,52,242,74,,,,,,,,,,,,2023-04-07_19h51.49.465,FaceAttractiveness,2022.2.5,144.75299346898925,
treatment,0% Never,100% Always,images\ LCHEEK_CFD_AF_237_223_N.png,0,0,0,0,2,53,243,24,,,,,,,,,,,,2023-04-07_19h51.49.465,FaceAttractiveness,2022.2.5,144.75299346898925,
treatment,0% Never,100% Always,images\ LCHEEK_006_M_F_N_A.png,0,0,0,0,2,54,244,19,,,,,,,,,,,,2023-04-07_19h51.49.465,FaceAttractiveness,2022.2.5,144.75299346898925,
treatment,0% Never,100% Always,images\FOREHEAD_CFD_AF_245_143_N.png,0,0,0,0,2,55,245,6,,,,,,,,,,,,2023-04-07_19h51.49.465,FaceAttractiveness,2022.2.5,144.75299346898925,
treatment,0% Never,100% Always,images\ LCHEEK_087_M_M_N_A.png,0,0,0,0,2,56,246,21,,,,,,,,,,,,2023-04-07_19h51.49.465,FaceAttractiveness,2022.2.5,144.75299346898925,
treatment,0% Never,100% Always,images\ NASALTIP_CFD_WM_212_097_N.png,0,0,0,0,2,57,247,75,,,,,,,,,,,,2023-04-07_19h51.49.465,FaceAttractiveness,2022.2.5,144.75299346898925,
treatment,0% Never,100% Always,images\ RCHEEK_CFD_BF_224_002_N.png,0,0,0,0,2,58,248,85,,,,,,,,,,,,2023-04-07_19h51.49.465,FaceAttractiveness,2022.2.5,144.75299346898925,
treatment,0% Never,100% Always,images\ LIP_CFD_LM_201_057_N.png,0,0,0,0,2,59,249,51,,,,,,,,,,,,2023-04-07_19h51.49.465,FaceAttractiveness,2022.2.5,144.75299346898925,
treatment,0% Never,100% Always,images\ NASALTIP_CFD_LF_224_176_N.png,0,0,0,0,2,60,250,69,,,,,,,,,,,,2023-04-07_19h51.49.465,FaceAttractiveness,2022.2.5,144.75299346898925,
treatment,0% Never,100% Always,images\ LCHEEK_CFD_BF_214_308_N.png,0,0,0,0,2,61,251,27,,,,,,,,,,,,2023-04-07_19h51.49.465,FaceAttractiveness,2022.2.5,144.75299346898925,
treatment,0% Never,100% Always,"images\ LIP_CFD_WF_002_004_N.png
",0,0,0,0,2,62,252,53,,,,,,,,,,,,2023-04-07_19h51.49.465,FaceAttractiveness,2022.2.5,144.75299346898925,
treatment,0% Never,100% Always,images\ NASALTIP_CFD_AF_245_143_N.png,0,0,0,0,2,63,253,63,,,,,,,,,,,,2023-04-07_19h51.49.465,FaceAttractiveness,2022.2.5,144.75299346898925,
treatment,0% Never,100% Always,images\ LCHEEK_CFD_AF_231_357_N.png,0,0,0,0,2,64,254,23,,,,,,,,,,,,2023-04-07_19h51.49.465,FaceAttractiveness,2022.2.5,144.75299346898925,
treatment,0% Never,100% Always,"images\ RCHEEK_CFD_BM_234_172_N.png
",0,0,0,0,2,65,255,87,,,,,,,,,,,,2023-04-07_19h51.49.465,FaceAttractiveness,2022.2.5,144.75299346898925,
treatment,0% Never,100% Always,images\ RCHEEK_CFD_AF_245_143_N.png,0,0,0,0,2,66,256,82,,,,,,,,,,,,2023-04-07_19h51.49.465,FaceAttractiveness,2022.2.5,144.75299346898925,
treatment,0% Never,100% Always,images\ LIP_CFD_BF_214_308_N.png,0,0,0,0,2,67,257,46,,,,,,,,,,,,2023-04-07_19h51.49.465,FaceAttractiveness,2022.2.5,144.75299346898925,
treatment,0% Never,100% Always,images\ LIP_CFD_WF_250_167_N.png,0,0,0,0,2,68,258,55,,,,,,,,,,,,2023-04-07_19h51.49.465,FaceAttractiveness,2022.2.5,144.75299346898925,
treatment,0% Never,100% Always,images\FOREHEAD_CFD_AM_233_236_N.png,0,0,0,0,2,69,259,7,,,,,,,,,,,,2023-04-07_19h51.49.465,FaceAttractiveness,2022.2.5,144.75299346898925,
treatment,0% Never,100% Always,images\ RCHEEK_CFD_AF_231_357_N.png,0,0,0,0,2,70,260,80,,,,,,,,,,,,2023-04-07_19h51.49.465,FaceAttractiveness,2022.2.5,144.75299346898925,
treatment,0% Never,100% Always,images\ LIP_087_M_M_N_A.png,0,0,0,0,2,71,261,40,,,,,,,,,,,,2023-04-07_19h51.49.465,FaceAttractiveness,2022.2.5,144.75299346898925,
treatment,0% Never,100% Always,images\ NASALTIP_CFD_AF_231_357_N.png,0,0,0,0,2,72,262,61,,,,,,,,,,,,2023-04-07_19h51.49.465,FaceAttractiveness,2022.2.5,144.75299346898925,
treatment,0% Never,100% Always,"images\ LCHEEK_CFD_WF_002_004_N.png
",0,0,0,0,2,73,263,34,,,,,,,,,,,,2023-04-07_19h51.49.465,FaceAttractiveness,2022.2.5,144.75299346898925,
treatment,0% Never,100% Always,images\ RCHEEK_CFD_WF_250_167_N.png,0,0,0,0,2,74,264,93,,,,,,,,,,,,2023-04-07_19h51.49.465,FaceAttractiveness,2022.2.5,144.75299346898925,
treatment,0% Never,100% Always,"images\ LCHEEK_136_M_M_N_A.png
",0,0,0,0,2,75,265,22,,,,,,,,,,,,2023-04-07_19h51.49.465,FaceAttractiveness,2022.2.5,144.75299346898925,
treatment,0% Never,100% Always,images\ RCHEEK_CFD_LM_203_026_N.png,0,0,0,0,2,76,266,90,,,,,,,,,,,,2023-04-07_19h51.49.465,FaceAttractiveness,2022.2.5,144.75299346898925,
treatment,0% Never,100% Always,images\ NASALTIP_087_M_M_N_A.png,0,0,0,0,2,77,267,59,,,,,,,,,,,,2023-04-07_19h51.49.465,FaceAttractiveness,2022.2.5,144.75299346898925,
treatment,0% Never,100% Always,"images\ LCHEEK_CFD_AM_233_236_N.png
",0,0,0,0,2,78,268,26,,,,,,,,,,,,2023-04-07_19h51.49.465,FaceAttractiveness,2022.2.5,144.75299346898925,
treatment,0% Never,100% Always,images\ LIP_CFD_AF_237_223_N.png,0,0,0,0,2,79,269,43,,,,,,,,,,,,2023-04-07_19h51.49.465,FaceAttractiveness,2022.2.5,144.75299346898925,
treatment,0% Never,100% Always,images\FOREHEAD_CFD_LF_224_176_N.png,0,0,0,0,2,80,270,12,,,,,,,,,,,,2023-04-07_19h51.49.465,FaceAttractiveness,2022.2.5,144.75299346898925,
treatment,0% Never,100% Always,images\ NASALTIP_035_M_F_N_A.png,0,0,0,0,2,81,271,58,,,,,,,,,,,,2023-04-07_19h51.49.465,FaceAttractiveness,2022.2.5,144.75299346898925,
treatment,0% Never,100% Always,"images\ NASALTIP_CFD_WF_002_004_N.png
",0,0,0,0,2,82,272,72,,,,,,,,,,,,2023-04-07_19h51.49.465,FaceAttractiveness,2022.2.5,144.75299346898925,
treatment,0% Never,100% Always,images\ LCHEEK_CFD_WF_200_099_N.png,0,0,0,0,2,83,273,35,,,,,,,,,,,,2023-04-07_19h51.49.465,FaceAttractiveness,2022.2.5,144.75299346898925,
treatment,0% Never,100% Always,"images\ RCHEEK_CFD_WF_002_004_N.png
",0,0,0,0,2,84,274,91,,,,,,,,,,,,2023-04-07_19h51.49.465,FaceAttractiveness,2022.2.5,144.75299346898925,
treatment,0% Never,100% Always,images\ LCHEEK_035_M_F_N_A.png,0,0,0,0,2,85,275,20,,,,,,,,,,,,2023-04-07_19h51.49.465,FaceAttractiveness,2022.2.5,144.75299346898925,
treatment,0% Never,100% Always,images\ NASALTIP_CFD_LM_201_057_N.png,0,0,0,0,2,86,276,70,,,,,,,,,,,,2023-04-07_19h51.49.465,FaceAttractiveness,2022.2.5,144.75299346898925,
treatment,0% Never,100% Always,images\FOREHEAD_CFD_AF_231_357_N.png,0,0,0,0,2,87,277,4,,,,,,,,,,,,2023-04-07_19h51.49.465,FaceAttractiveness,2022.2.5,144.75299346898925,
treatment,0% Never,100% Always,images\ RCHEEK_035_M_F_N_A.png,0,0,0,0,2,88,278,77,,,,,,,,,,,,2023-04-07_19h51.49.465,FaceAttractiveness,2022.2.5,144.75299346898925,
treatment,0% Never,100% Always,images\FOREHEAD_CFD_LM_203_026_N.png,0,0,0,0,2,89,279,14,,,,,,,,,,,,2023-04-07_19h51.49.465,FaceAttractiveness,2022.2.5,144.75299346898925,
treatment,0% Never,100% Always,images\FOREHEAD_087_M_M_N_A.png,0,0,0,0,2,90,280,2,,,,,,,,,,,,2023-04-07_19h51.49.465,FaceAttractiveness,2022.2.5,144.75299346898925,
treatment,0% Never,100% Always,images\ NASALTIP_CFD_BF_224_002_N.png,0,0,0,0,2,91,281,66,,,,,,,,,,,,2023-04-07_19h51.49.465,FaceAttractiveness,2022.2.5,144.75299346898925,
treatment,0% Never,100% Always,images\ RCHEEK_CFD_BF_214_308_N.png,0,0,0,0,2,92,282,84,,,,,,,,,,,,2023-04-07_19h51.49.465,FaceAttractiveness,2022.2.5,144.75299346898925,
treatment,0% Never,100% Always,images\ NASALTIP_CFD_AF_237_223_N.png,0,0,0,0,2,93,283,62,,,,,,,,,,,,2023-04-07_19h51.49.465,FaceAttractiveness,2022.2.5,144.75299346898925,
treatment,0% Never,100% Always,images\ RCHEEK_CFD_AF_237_223_N.png,0,0,0,0,2,94,284,81,,,,,,,,,,,,2023-04-07_19h51.49.465,FaceAttractiveness,2022.2.5,144.75299346898925,
treatment,0% Never,100% Always,images\ LCHEEK_CFD_WF_200_099_N.png,0,0,0,0,3,0,285,35,,,,,,,,,,,,2023-04-07_19h51.49.465,FaceAttractiveness,2022.2.5,144.75299346898925,
treatment,0% Never,100% Always,images\ LIP_CFD_LM_203_026_N.png,0,0,0,0,3,1,286,52,,,,,,,,,,,,2023-04-07_19h51.49.465,FaceAttractiveness,2022.2.5,144.75299346898925,
treatment,0% Never,100% Always,images\ LCHEEK_CFD_BM_213_134_N.png,0,0,0,0,3,2,287,29,,,,,,,,,,,,2023-04-07_19h51.49.465,FaceAttractiveness,2022.2.5,144.75299346898925,
treatment,0% Never,100% Always,images\FOREHEAD_CFD_WF_250_167_N.png,0,0,0,0,3,3,288,17,,,,,,,,,,,,2023-04-07_19h51.49.465,FaceAttractiveness,2022.2.5,144.75299346898925,
treatment,0% Never,100% Always,images\ RCHEEK_CFD_LM_201_057_N.png,0,0,0,0,3,4,289,89,,,,,,,,,,,,2023-04-07_19h51.49.465,FaceAttractiveness,2022.2.5,144.75299346898925,
treatment,0% Never,100% Always,images\FOREHEAD_CFD_AF_231_357_N.png,0,0,0,0,3,5,290,4,,,,,,,,,,,,2023-04-07_19h51.49.465,FaceAttractiveness,2022.2.5,144.75299346898925,
treatment,0% Never,100% Always,images\ LIP_CFD_WM_212_097_N.png,0,0,0,0,3,6,291,56,,,,,,,,,,,,2023-04-07_19h51.49.465,FaceAttractiveness,2022.2.5,144.75299346898925,
treatment,0% Never,100% Always,images\FOREHEAD_136_M_M_N_A.png,0,0,0,0,3,7,292,3,,,,,,,,,,,,2023-04-07_19h51.49.465,FaceAttractiveness,2022.2.5,144.75299346898925,
treatment,0% Never,100% Always,images\ RCHEEK_CFD_AF_231_357_N.png,0,0,0,0,3,8,293,80,,,,,,,,,,,,2023-04-07_19h51.49.465,FaceAttractiveness,2022.2.5,144.75299346898925,
treatment,0% Never,100% Always,"images\ RCHEEK_CFD_BM_234_172_N.png
",0,0,0,0,3,9,294,87,,,,,,,,,,,,2023-04-07_19h51.49.465,FaceAttractiveness,2022.2.5,144.75299346898925,
treatment,0% Never,100% Always,images\ LCHEEK_CFD_WF_250_167_N.png,0,0,0,0,3,10,295,36,,,,,,,,,,,,2023-04-07_19h51.49.465,FaceAttractiveness,2022.2.5,144.75299346898925,
treatment,0% Never,100% Always,images\ LCHEEK_CFD_LF_224_176_N.png,0,0,0,0,3,11,296,31,,,,,,,,,,,,2023-04-07_19h51.49.465,FaceAttractiveness,2022.2.5,144.75299346898925,
treatment,0% Never,100% Always,images\ LCHEEK_CFD_AF_231_357_N.png,0,0,0,0,3,12,297,23,,,,,,,,,,,,2023-04-07_19h51.49.465,FaceAttractiveness,2022.2.5,144.75299346898925,
treatment,0% Never,100% Always,images\FOREHEAD_CFD_BF_224_002_N.png,0,0,0,0,3,13,298,9,,,,,,,,,,,,2023-04-07_19h51.49.465,FaceAttractiveness,2022.2.5,144.75299346898925,
treatment,0% Never,100% Always,images\FOREHEAD_CFD_WF_002_004_N.png,0,0,0,0,3,14,299,15,,,,,,,,,,,,2023-04-07_19h51.49.465,FaceAttractiveness,2022.2.5,144.75299346898925,
treatment,0% Never,100% Always,"images\ LIP_CFD_AM_233_236_N.png
",0,0,0,0,3,15,300,45,,,,,,,,,,,,2023-04-07_19h51.49.465,FaceAttractiveness,2022.2.5,144.75299346898925,
treatment,0% Never,100% Always,images\ NASALTIP_CFD_LM_203_026_N.png,0,0,0,0,3,16,301,71,,,,,,,,,,,,2023-04-07_19h51.49.465,FaceAttractiveness,2022.2.5,144.75299346898925,
treatment,0% Never,100% Always,images\ LCHEEK_035_M_F_N_A.png,0,0,0,0,3,17,302,20,,,,,,,,,,,,2023-04-07_19h51.49.465,FaceAttractiveness,2022.2.5,144.75299346898925,
treatment,0% Never,100% Always,images\ NASALTIP_CFD_AF_237_223_N.png,0,0,0,0,3,18,303,62,,,,,,,,,,,,2023-04-07_19h51.49.465,FaceAttractiveness,2022.2.5,144.75299346898925,
treatment,0% Never,100% Always,images\ NASALTIP_CFD_LF_224_176_N.png,0,0,0,0,3,19,304,69,,,,,,,,,,,,2023-04-07_19h51.49.465,FaceAttractiveness,2022.2.5,144.75299346898925,
treatment,0% Never,100% Always,images\ NASALTIP_035_M_F_N_A.png,0,0,0,0,3,20,305,58,,,,,,,,,,,,2023-04-07_19h51.49.465,FaceAttractiveness,2022.2.5,144.75299346898925,
treatment,0% Never,100% Always,"images\ LIP_CFD_BM_234_172_N.png
",0,0,0,0,3,21,306,49,,,,,,,,,,,,2023-04-07_19h51.49.465,FaceAttractiveness,2022.2.5,144.75299346898925,
treatment,0% Never,100% Always,images\ LIP_CFD_AF_237_223_N.png,0,0,0,0,3,22,307,43,,,,,,,,,,,,2023-04-07_19h51.49.465,FaceAttractiveness,2022.2.5,144.75299346898925,
treatment,0% Never,100% Always,images\ NASALTIP_CFD_WF_200_099_N.png,0,0,0,0,3,23,308,73,,,,,,,,,,,,2023-04-07_19h51.49.465,FaceAttractiveness,2022.2.5,144.75299346898925,
treatment,0% Never,100% Always,images\ RCHEEK_CFD_BF_224_002_N.png,0,0,0,0,3,24,309,85,,,,,,,,,,,,2023-04-07_19h51.49.465,FaceAttractiveness,2022.2.5,144.75299346898925,
treatment,0% Never,100% Always,"images\ LCHEEK_136_M_M_N_A.png
",0,0,0,0,3,25,310,22,,,,,,,,,,,,2023-04-07_19h51.49.465,FaceAttractiveness,2022.2.5,144.75299346898925,
treatment,0% Never,100% Always,images\ LCHEEK_006_M_F_N_A.png,0,0,0,0,3,26,311,19,,,,,,,,,,,,2023-04-07_19h51.49.465,FaceAttractiveness,2022.2.5,144.75299346898925,
treatment,0% Never,100% Always,images\FOREHEAD_CFD_AF_245_143_N.png,0,0,0,0,3,27,312,6,,,,,,,,,,,,2023-04-07_19h51.49.465,FaceAttractiveness,2022.2.5,144.75299346898925,
treatment,0% Never,100% Always,images\ RCHEEK_CFD_WF_250_167_N.png,0,0,0,0,3,28,313,93,,,,,,,,,,,,2023-04-07_19h51.49.465,FaceAttractiveness,2022.2.5,144.75299346898925,
treatment,0% Never,100% Always,images\FOREHEAD_035_M_F_N_A.png,0,0,0,0,3,29,314,1,,,,,,,,,,,,2023-04-07_19h51.49.465,FaceAttractiveness,2022.2.5,144.75299346898925,
treatment,0% Never,100% Always,images\ RCHEEK_087_M_M_N_A.png,0,0,0,0,3,30,315,78,,,,,,,,,,,,2023-04-07_19h51.49.465,FaceAttractiveness,2022.2.5,144.75299346898925,
treatment,0% Never,100% Always,images\ LIP_CFD_AF_231_357_N.png,0,0,0,0,3,31,316,42,,,,,,,,,,,,2023-04-07_19h51.49.465,FaceAttractiveness,2022.2.5,144.75299346898925,
treatment,0% Never,100% Always,images\ RCHEEK_CFD_AF_237_223_N.png,0,0,0,0,3,32,317,81,,,,,,,,,,,,2023-04-07_19h51.49.465,FaceAttractiveness,2022.2.5,144.75299346898925,
treatment,0% Never,100% Always,images\ LIP_CFD_WF_250_167_N.png,0,0,0,0,3,33,318,55,,,,,,,,,,,,2023-04-07_19h51.49.465,FaceAttractiveness,2022.2.5,144.75299346898925,
treatment,0% Never,100% Always,"images\ NASALTIP_CFD_AM_233_236_N.png
",0,0,0,0,3,34,319,64,,,,,,,,,,,,2023-04-07_19h51.49.465,FaceAttractiveness,2022.2.5,144.75299346898925,
treatment,0% Never,100% Always,images\ LCHEEK_CFD_AF_237_223_N.png,0,0,0,0,3,35,320,24,,,,,,,,,,,,2023-04-07_19h51.49.465,FaceAttractiveness,2022.2.5,144.75299346898925,
treatment,0% Never,100% Always,images\ LIP_087_M_M_N_A.png,0,0,0,0,3,36,321,40,,,,,,,,,,,,2023-04-07_19h51.49.465,FaceAttractiveness,2022.2.5,144.75299346898925,
treatment,0% Never,100% Always,images\ LIP_CFD_WF_200_099_N.png,0,0,0,0,3,37,322,54,,,,,,,,,,,,2023-04-07_19h51.49.465,FaceAttractiveness,2022.2.5,144.75299346898925,
treatment,0% Never,100% Always,images\ LCHEEK_CFD_LM_201_057_N.png,0,0,0,0,3,38,323,32,,,,,,,,,,,,2023-04-07_19h51.49.465,FaceAttractiveness,2022.2.5,144.75299346898925,
treatment,0% Never,100% Always,images\ LIP_CFD_BF_224_002_N.png,0,0,0,0,3,39,324,47,,,,,,,,,,,,2023-04-07_19h51.49.465,FaceAttractiveness,2022.2.5,144.75299346898925,
treatment,0% Never,100% Always,images\ NASALTIP_CFD_BM_213_134_N.png,0,0,0,0,3,40,325,67,,,,,,,,,,,,2023-04-07_19h51.49.465,FaceAttractiveness,2022.2.5,144.75299346898925,
treatment,0% Never,100% Always,"images\ LCHEEK_CFD_AM_233_236_N.png
",0,0,0,0,3,41,326,26,,,,,,,,,,,,2023-04-07_19h51.49.465,FaceAttractiveness,2022.2.5,144.75299346898925,
treatment,0% Never,100% Always,"images\ NASALTIP_CFD_BM_234_172_N.png
",0,0,0,0,3,42,327,68,,,,,,,,,,,,2023-04-07_19h51.49.465,FaceAttractiveness,2022.2.5,144.75299346898925,
treatment,0% Never,100% Always,images\ NASALTIP_CFD_WF_250_167_N.png,0,0,0,0,3,43,328,74,,,,,,,,,,,,2023-04-07_19h51.49.465,FaceAttractiveness,2022.2.5,144.75299346898925,
treatment,0% Never,100% Always,"images\ NASALTIP_CFD_WF_002_004_N.png
",0,0,0,0,3,44,329,72,,,,,,,,,,,,2023-04-07_19h51.49.465,FaceAttractiveness,2022.2.5,144.75299346898925,
treatment,0% Never,100% Always,images\ LIP_CFD_BF_214_308_N.png,0,0,0,0,3,45,330,46,,,,,,,,,,,,2023-04-07_19h51.49.465,FaceAttractiveness,2022.2.5,144.75299346898925,
treatment,0% Never,100% Always,images\FOREHEAD_CFD_WM_212_097_N.png,0,0,0,0,3,46,331,18,,,,,,,,,,,,2023-04-07_19h51.49.465,FaceAttractiveness,2022.2.5,144.75299346898925,
treatment,0% Never,100% Always,"images\ LIP_136_M_M_N_A.png
",0,0,0,0,3,47,332,41,,,,,,,,,,,,2023-04-07_19h51.49.465,FaceAttractiveness,2022.2.5,144.75299346898925,
treatment,0% Never,100% Always,images\FOREHEAD_CFD_BM_234_172_N.png,0,0,0,0,3,48,333,11,,,,,,,,,,,,2023-04-07_19h51.49.465,FaceAttractiveness,2022.2.5,144.75299346898925,
treatment,0% Never,100% Always,images\ LIP_CFD_BM_213_134_N.png,0,0,0,0,3,49,334,48,,,,,,,,,,,,2023-04-07_19h51.49.465,FaceAttractiveness,2022.2.5,144.75299346898925,
treatment,0% Never,100% Always,images\FOREHEAD_CFD_LM_203_026_N.png,0,0,0,0,3,50,335,14,,,,,,,,,,,,2023-04-07_19h51.49.465,FaceAttractiveness,2022.2.5,144.75299346898925,
treatment,0% Never,100% Always,"images\ RCHEEK_CFD_AM_233_236_N.png
",0,0,0,0,3,51,336,83,,,,,,,,,,,,2023-04-07_19h51.49.465,FaceAttractiveness,2022.2.5,144.75299346898925,
treatment,0% Never,100% Always,images\ RCHEEK_CFD_LM_203_026_N.png,0,0,0,0,3,52,337,90,,,,,,,,,,,,2023-04-07_19h51.49.465,FaceAttractiveness,2022.2.5,144.75299346898925,
treatment,0% Never,100% Always,images\FOREHEAD_CFD_AM_233_236_N.png,0,0,0,0,3,53,338,7,,,,,,,,,,,,2023-04-07_19h51.49.465,FaceAttractiveness,2022.2.5,144.75299346898925,
treatment,0% Never,100% Always,images\ LCHEEK_CFD_BF_214_308_N.png,0,0,0,0,3,54,339,27,,,,,,,,,,,,2023-04-07_19h51.49.465,FaceAttractiveness,2022.2.5,144.75299346898925,
treatment,0% Never,100% Always,images\ NASALTIP_CFD_LM_201_057_N.png,0,0,0,0,3,55,340,70,,,,,,,,,,,,2023-04-07_19h51.49.465,FaceAttractiveness,2022.2.5,144.75299346898925,
treatment,0% Never,100% Always,images\ LCHEEK_CFD_WM_212_097_N.png,0,0,0,0,3,56,341,37,,,,,,,,,,,,2023-04-07_19h51.49.465,FaceAttractiveness,2022.2.5,144.75299346898925,
treatment,0% Never,100% Always,images\ LCHEEK_CFD_BF_224_002_N.png,0,0,0,0,3,57,342,28,,,,,,,,,,,,2023-04-07_19h51.49.465,FaceAttractiveness,2022.2.5,144.75299346898925,
treatment,0% Never,100% Always,images\ LCHEEK_CFD_AF_245_143_N.png,0,0,0,0,3,58,343,25,,,,,,,,,,,,2023-04-07_19h51.49.465,FaceAttractiveness,2022.2.5,144.75299346898925,
treatment,0% Never,100% Always,images\ LIP_CFD_LM_201_057_N.png,0,0,0,0,3,59,344,51,,,,,,,,,,,,2023-04-07_19h51.49.465,FaceAttractiveness,2022.2.5,144.75299346898925,
treatment,0% Never,100% Always,"images\ RCHEEK_CFD_WF_002_004_N.png
",0,0,0,0,3,60,345,91,,,,,,,,,,,,2023-04-07_19h51.49.465,FaceAttractiveness,2022.2.5,144.75299346898925,
treatment,0% Never,100% Always,images\ LIP_CFD_LF_224_176_N.png,0,0,0,0,3,61,346,50,,,,,,,,,,,,2023-04-07_19h51.49.465,FaceAttractiveness,2022.2.5,144.75299346898925,
treatment,0% Never,100% Always,images\ LIP_006_M_F_N_A.png,0,0,0,0,3,62,347,38,,,,,,,,,,,,2023-04-07_19h51.49.465,FaceAttractiveness,2022.2.5,144.75299346898925,
treatment,0% Never,100% Always,"images\ NASALTIP_136_M_M_N_A.png
",0,0,0,0,3,63,348,60,,,,,,,,,,,,2023-04-07_19h51.49.465,FaceAttractiveness,2022.2.5,144.75299346898925,
treatment,0% Never,100% Always,"images\ LIP_CFD_WF_002_004_N.png
",0,0,0,0,3,64,349,53,,,,,,,,,,,,2023-04-07_19h51.49.465,FaceAttractiveness,2022.2.5,144.75299346898925,
treatment,0% Never,100% Always,images\FOREHEAD_CFD_WF_200_099_N.png,0,0,0,0,3,65,350,16,,,,,,,,,,,,2023-04-07_19h51.49.465,FaceAttractiveness,2022.2.5,144.75299346898925,
treatment,0% Never,100% Always,images\ NASALTIP_CFD_BF_214_308_N.png,0,0,0,0,3,66,351,65,,,,,,,,,,,,2023-04-07_19h51.49.465,FaceAttractiveness,2022.2.5,144.75299346898925,
treatment,0% Never,100% Always,images\ LIP_035_M_F_N_A.png,0,0,0,0,3,67,352,39,,,,,,,,,,,,2023-04-07_19h51.49.465,FaceAttractiveness,2022.2.5,144.75299346898925,
treatment,0% Never,100% Always,images\ RCHEEK_006_M_F_N_A.png,0,0,0,0,3,68,353,76,,,,,,,,,,,,2023-04-07_19h51.49.465,FaceAttractiveness,2022.2.5,144.75299346898925,
treatment,0% Never,100% Always,images\ RCHEEK_CFD_LF_224_176_N.png,0,0,0,0,3,69,354,88,,,,,,,,,,,,2023-04-07_19h51.49.465,FaceAttractiveness,2022.2.5,144.75299346898925,
treatment,0% Never,100% Always,images\ NASALTIP_CFD_WM_212_097_N.png,0,0,0,0,3,70,355,75,,,,,,,,,,,,2023-04-07_19h51.49.465,FaceAttractiveness,2022.2.5,144.75299346898925,
treatment,0% Never,100% Always,images\ NASALTIP_087_M_M_N_A.png,0,0,0,0,3,71,356,59,,,,,,,,,,,,2023-04-07_19h51.49.465,FaceAttractiveness,2022.2.5,144.75299346898925,
treatment,0% Never,100% Always,"images\ RCHEEK_136_M_M_N_A.png
",0,0,0,0,3,72,357,79,,,,,,,,,,,,2023-04-07_19h51.49.465,FaceAttractiveness,2022.2.5,144.75299346898925,
treatment,0% Never,100% Always,images\FOREHEAD_CFD_LM_201_057_N.png,0,0,0,0,3,73,358,13,,,,,,,,,,,,2023-04-07_19h51.49.465,FaceAttractiveness,2022.2.5,144.75299346898925,
treatment,0% Never,100% Always,images\ RCHEEK_CFD_WM_212_097_N.png,0,0,0,0,3,74,359,94,,,,,,,,,,,,2023-04-07_19h51.49.465,FaceAttractiveness,2022.2.5,144.75299346898925,
treatment,0% Never,100% Always,images\ NASALTIP_006_M_F_N_A.png,0,0,0,0,3,75,360,57,,,,,,,,,,,,2023-04-07_19h51.49.465,FaceAttractiveness,2022.2.5,144.75299346898925,
treatment,0% Never,100% Always,images\ LIP_CFD_AF_245_143_N.png,0,0,0,0,3,76,361,44,,,,,,,,,,,,2023-04-07_19h51.49.465,FaceAttractiveness,2022.2.5,144.75299346898925,
treatment,0% Never,100% Always,images\FOREHEAD_CFD_AF_237_223_N.png,0,0,0,0,3,77,362,5,,,,,,,,,,,,2023-04-07_19h51.49.465,FaceAttractiveness,2022.2.5,144.75299346898925,
treatment,0% Never,100% Always,images\ NASALTIP_CFD_AF_245_143_N.png,0,0,0,0,3,78,363,63,,,,,,,,,,,,2023-04-07_19h51.49.465,FaceAttractiveness,2022.2.5,144.75299346898925,
treatment,0% Never,100% Always,"images\ LCHEEK_CFD_WF_002_004_N.png
",0,0,0,0,3,79,364,34,,,,,,,,,,,,2023-04-07_19h51.49.465,FaceAttractiveness,2022.2.5,144.75299346898925,
treatment,0% Never,100% Always,images\ RCHEEK_CFD_BM_213_134_N.png,0,0,0,0,3,80,365,86,,,,,,,,,,,,2023-04-07_19h51.49.465,FaceAttractiveness,2022.2.5,144.75299346898925,
treatment,0% Never,100% Always,images\FOREHEAD_006_M_F_N_A.png,0,0,0,0,3,81,366,0,,,,,,,,,,,,2023-04-07_19h51.49.465,FaceAttractiveness,2022.2.5,144.75299346898925,
treatment,0% Never,100% Always,images\ RCHEEK_CFD_BF_214_308_N.png,0,0,0,0,3,82,367,84,,,,,,,,,,,,2023-04-07_19h51.49.465,FaceAttractiveness,2022.2.5,144.75299346898925,
treatment,0% Never,100% Always,images\ LCHEEK_087_M_M_N_A.png,0,0,0,0,3,83,368,21,,,,,,,,,,,,2023-04-07_19h51.49.465,FaceAttractiveness,2022.2.5,144.75299346898925,
treatment,0% Never,100% Always,images\FOREHEAD_CFD_BF_214_308_N.png,0,0,0,0,3,84,369,8,,,,,,,,,,,,2023-04-07_19h51.49.465,FaceAttractiveness,2022.2.5,144.75299346898925,
treatment,0% Never,100% Always,images\ LCHEEK_CFD_LM_203_026_N.png,0,0,0,0,3,85,370,33,,,,,,,,,,,,2023-04-07_19h51.49.465,FaceAttractiveness,2022.2.5,144.75299346898925,
treatment,0% Never,100% Always,images\ NASALTIP_CFD_BF_224_002_N.png,0,0,0,0,3,86,371,66,,,,,,,,,,,,2023-04-07_19h51.49.465,FaceAttractiveness,2022.2.5,144.75299346898925,
treatment,0% Never,100% Always,images\FOREHEAD_CFD_LF_224_176_N.png,0,0,0,0,3,87,372,12,,,,,,,,,,,,2023-04-07_19h51.49.465,FaceAttractiveness,2022.2.5,144.75299346898925,
treatment,0% Never,100% Always,images\ RCHEEK_CFD_WF_200_099_N.png,0,0,0,0,3,88,373,92,,,,,,,,,,,,2023-04-07_19h51.49.465,FaceAttractiveness,2022.2.5,144.75299346898925,
treatment,0% Never,100% Always,images\ RCHEEK_CFD_AF_245_143_N.png,0,0,0,0,3,89,374,82,,,,,,,,,,,,2023-04-07_19h51.49.465,FaceAttractiveness,2022.2.5,144.75299346898925,
treatment,0% Never,100% Always,"images\ LCHEEK_CFD_BM_234_172_N.png
",0,0,0,0,3,90,375,30,,,,,,,,,,,,2023-04-07_19h51.49.465,FaceAttractiveness,2022.2.5,144.75299346898925,
treatment,0% Never,100% Always,images\ NASALTIP_CFD_AF_231_357_N.png,0,0,0,0,3,91,376,61,,,,,,,,,,,,2023-04-07_19h51.49.465,FaceAttractiveness,2022.2.5,144.75299346898925,
treatment,0% Never,100% Always,images\FOREHEAD_087_M_M_N_A.png,0,0,0,0,3,92,377,2,,,,,,,,,,,,2023-04-07_19h51.49.465,FaceAttractiveness,2022.2.5,144.75299346898925,
treatment,0% Never,100% Always,images\FOREHEAD_CFD_BM_213_134_N.png,0,0,0,0,3,93,378,10,,,,,,,,,,,,2023-04-07_19h51.49.465,FaceAttractiveness,2022.2.5,144.75299346898925,
treatment,0% Never,100% Always,images\ RCHEEK_035_M_F_N_A.png,0,0,0,0,3,94,379,77,,,,,,,,,,,,2023-04-07_19h51.49.465,FaceAttractiveness,2022.2.5,144.75299346898925,
treatment,0% Never,100% Always,images\FOREHEAD_CFD_AF_231_357_N.png,0,0,0,0,4,0,380,4,,,,,,,,,,,,2023-04-07_19h51.49.465,FaceAttractiveness,2022.2.5,144.75299346898925,
treatment,0% Never,100% Always,images\ NASALTIP_035_M_F_N_A.png,0,0,0,0,4,1,381,58,,,,,,,,,,,,2023-04-07_19h51.49.465,FaceAttractiveness,2022.2.5,144.75299346898925,
treatment,0% Never,100% Always,images\ LCHEEK_035_M_F_N_A.png,0,0,0,0,4,2,382,20,,,,,,,,,,,,2023-04-07_19h51.49.465,FaceAttractiveness,2022.2.5,144.75299346898925,
treatment,0% Never,100% Always,images\ NASALTIP_CFD_BM_213_134_N.png,0,0,0,0,4,3,383,67,,,,,,,,,,,,2023-04-07_19h51.49.465,FaceAttractiveness,2022.2.5,144.75299346898925,
treatment,0% Never,100% Always,"images\ RCHEEK_136_M_M_N_A.png
",0,0,0,0,4,4,384,79,,,,,,,,,,,,2023-04-07_19h51.49.465,FaceAttractiveness,2022.2.5,144.75299346898925,
treatment,0% Never,100% Always,images\ RCHEEK_CFD_LM_201_057_N.png,0,0,0,0,4,5,385,89,,,,,,,,,,,,2023-04-07_19h51.49.465,FaceAttractiveness,2022.2.5,144.75299346898925,
treatment,0% Never,100% Always,images\ NASALTIP_CFD_LM_203_026_N.png,0,0,0,0,4,6,386,71,,,,,,,,,,,,2023-04-07_19h51.49.465,FaceAttractiveness,2022.2.5,144.75299346898925,
treatment,0% Never,100% Always,images\FOREHEAD_CFD_BF_214_308_N.png,0,0,0,0,4,7,387,8,,,,,,,,,,,,2023-04-07_19h51.49.465,FaceAttractiveness,2022.2.5,144.75299346898925,
treatment,0% Never,100% Always,"images\ LIP_CFD_AM_233_236_N.png
",0,0,0,0,4,8,388,45,,,,,,,,,,,,2023-04-07_19h51.49.465,FaceAttractiveness,2022.2.5,144.75299346898925,
treatment,0% Never,100% Always,images\ LCHEEK_CFD_LM_201_057_N.png,0,0,0,0,4,9,389,32,,,,,,,,,,,,2023-04-07_19h51.49.465,FaceAttractiveness,2022.2.5,144.75299346898925,
treatment,0% Never,100% Always,images\ LIP_CFD_WF_200_099_N.png,0,0,0,0,4,10,390,54,,,,,,,,,,,,2023-04-07_19h51.49.465,FaceAttractiveness,2022.2.5,144.75299346898925,
treatment,0% Never,100% Always,images\ NASALTIP_CFD_AF_237_223_N.png,0,0,0,0,4,11,391,62,,,,,,,,,,,,2023-04-07_19h51.49.465,FaceAttractiveness,2022.2.5,144.75299346898925,
treatment,0% Never,100% Always,images\ RCHEEK_CFD_LM_203_026_N.png,0,0,0,0,4,12,392,90,,,,,,,,,,,,2023-04-07_19h51.49.465,FaceAttractiveness,2022.2.5,144.75299346898925,
treatment,0% Never,100% Always,images\ RCHEEK_CFD_AF_231_357_N.png,0,0,0,0,4,13,393,80,,,,,,,,,,,,2023-04-07_19h51.49.465,FaceAttractiveness,2022.2.5,144.75299346898925,
treatment,0% Never,100% Always,"images\ RCHEEK_CFD_BM_234_172_N.png
",0,0,0,0,4,14,394,87,,,,,,,,,,,,2023-04-07_19h51.49.465,FaceAttractiveness,2022.2.5,144.75299346898925,
treatment,0% Never,100% Always,"images\ NASALTIP_CFD_WF_002_004_N.png
",0,0,0,0,4,15,395,72,,,,,,,,,,,,2023-04-07_19h51.49.465,FaceAttractiveness,2022.2.5,144.75299346898925,
treatment,0% Never,100% Always,images\ RCHEEK_CFD_WM_212_097_N.png,0,0,0,0,4,16,396,94,,,,,,,,,,,,2023-04-07_19h51.49.465,FaceAttractiveness,2022.2.5,144.75299346898925,
treatment,0% Never,100% Always,images\ RCHEEK_CFD_WF_250_167_N.png,0,0,0,0,4,17,397,93,,,,,,,,,,,,2023-04-07_19h51.49.465,FaceAttractiveness,2022.2.5,144.75299346898925,
treatment,0% Never,100% Always,images\ RCHEEK_CFD_AF_237_223_N.png,0,0,0,0,4,18,398,81,,,,,,,,,,,,2023-04-07_19h51.49.465,FaceAttractiveness,2022.2.5,144.75299346898925,
treatment,0% Never,100% Always,images\ NASALTIP_CFD_BF_214_308_N.png,0,0,0,0,4,19,399,65,,,,,,,,,,,,2023-04-07_19h51.49.465,FaceAttractiveness,2022.2.5,144.75299346898925,
treatment,0% Never,100% Always,images\FOREHEAD_006_M_F_N_A.png,0,0,0,0,4,20,400,0,,,,,,,,,,,,2023-04-07_19h51.49.465,FaceAttractiveness,2022.2.5,144.75299346898925,
treatment,0% Never,100% Always,images\ LCHEEK_CFD_WM_212_097_N.png,0,0,0,0,4,21,401,37,,,,,,,,,,,,2023-04-07_19h51.49.465,FaceAttractiveness,2022.2.5,144.75299346898925,
treatment,0% Never,100% Always,images\ LCHEEK_CFD_AF_237_223_N.png,0,0,0,0,4,22,402,24,,,,,,,,,,,,2023-04-07_19h51.49.465,FaceAttractiveness,2022.2.5,144.75299346898925,
treatment,0% Never,100% Always,images\FOREHEAD_CFD_AM_233_236_N.png,0,0,0,0,4,23,403,7,,,,,,,,,,,,2023-04-07_19h51.49.465,FaceAttractiveness,2022.2.5,144.75299346898925,
treatment,0% Never,100% Always,images\FOREHEAD_087_M_M_N_A.png,0,0,0,0,4,24,404,2,,,,,,,,,,,,2023-04-07_19h51.49.465,FaceAttractiveness,2022.2.5,144.75299346898925,
treatment,0% Never,100% Always,images\ RCHEEK_087_M_M_N_A.png,0,0,0,0,4,25,405,78,,,,,,,,,,,,2023-04-07_19h51.49.465,FaceAttractiveness,2022.2.5,144.75299346898925,
treatment,0% Never,100% Always,"images\ LCHEEK_CFD_AM_233_236_N.png
",0,0,0,0,4,26,406,26,,,,,,,,,,,,2023-04-07_19h51.49.465,FaceAttractiveness,2022.2.5,144.75299346898925,
treatment,0% Never,100% Always,images\ LIP_CFD_BF_224_002_N.png,0,0,0,0,4,27,407,47,,,,,,,,,,,,2023-04-07_19h51.49.465,FaceAttractiveness,2022.2.5,144.75299346898925,
treatment,0% Never,100% Always,images\ LCHEEK_CFD_BF_214_308_N.png,0,0,0,0,4,28,408,27,,,,,,,,,,,,2023-04-07_19h51.49.465,FaceAttractiveness,2022.2.5,144.75299346898925,
treatment,0% Never,100% Always,images\ LIP_006_M_F_N_A.png,0,0,0,0,4,29,409,38,,,,,,,,,,,,2023-04-07_19h51.49.465,FaceAttractiveness,2022.2.5,144.75299346898925,
treatment,0% Never,100% Always,images\ NASALTIP_CFD_WM_212_097_N.png,0,0,0,0,4,30,410,75,,,,,,,,,,,,2023-04-07_19h51.49.465,FaceAttractiveness,2022.2.5,144.75299346898925,
treatment,0% Never,100% Always,images\ LIP_035_M_F_N_A.png,0,0,0,0,4,31,411,39,,,,,,,,,,,,2023-04-07_19h51.49.465,FaceAttractiveness,2022.2.5,144.75299346898925,
treatment,0% Never,100% Always,images\ RCHEEK_CFD_BF_214_308_N.png,0,0,0,0,4,32,412,84,,,,,,,,,,,,2023-04-07_19h51.49.465,FaceAttractiveness,2022.2.5,144.75299346898925,
treatment,0% Never,100% Always,images\ LCHEEK_CFD_BM_213_134_N.png,0,0,0,0,4,33,413,29,,,,,,,,,,,,2023-04-07_19h51.49.465,FaceAttractiveness,2022.2.5,144.75299346898925,
treatment,0% Never,100% Always,images\FOREHEAD_035_M_F_N_A.png,0,0,0,0,4,34,414,1,,,,,,,,,,,,2023-04-07_19h51.49.465,FaceAttractiveness,2022.2.5,144.75299346898925,
treatment,0% Never,100% Always,images\ LIP_CFD_AF_231_357_N.png,0,0,0,0,4,35,415,42,,,,,,,,,,,,2023-04-07_19h51.49.465,FaceAttractiveness,2022.2.5,144.75299346898925,
treatment,0% Never,100% Always,images\ LIP_087_M_M_N_A.png,0,0,0,0,4,36,416,40,,,,,,,,,,,,2023-04-07_19h51.49.465,FaceAttractiveness,2022.2.5,144.75299346898925,
treatment,0% Never,100% Always,"images\ RCHEEK_CFD_WF_002_004_N.png
",0,0,0,0,4,37,417,91,,,,,,,,,,,,2023-04-07_19h51.49.465,FaceAttractiveness,2022.2.5,144.75299346898925,
treatment,0% Never,100% Always,images\ RCHEEK_CFD_BM_213_134_N.png,0,0,0,0,4,38,418,86,,,,,,,,,,,,2023-04-07_19h51.49.465,FaceAttractiveness,2022.2.5,144.75299346898925,
treatment,0% Never,100% Always,"images\ NASALTIP_136_M_M_N_A.png
",0,0,0,0,4,39,419,60,,,,,,,,,,,,2023-04-07_19h51.49.465,FaceAttractiveness,2022.2.5,144.75299346898925,
treatment,0% Never,100% Always,images\ LIP_CFD_LM_203_026_N.png,0,0,0,0,4,40,420,52,,,,,,,,,,,,2023-04-07_19h51.49.465,FaceAttractiveness,2022.2.5,144.75299346898925,
treatment,0% Never,100% Always,images\ RCHEEK_CFD_WF_200_099_N.png,0,0,0,0,4,41,421,92,,,,,,,,,,,,2023-04-07_19h51.49.465,FaceAttractiveness,2022.2.5,144.75299346898925,
treatment,0% Never,100% Always,images\ RCHEEK_006_M_F_N_A.png,0,0,0,0,4,42,422,76,,,,,,,,,,,,2023-04-07_19h51.49.465,FaceAttractiveness,2022.2.5,144.75299346898925,
treatment,0% Never,100% Always,images\ RCHEEK_CFD_LF_224_176_N.png,0,0,0,0,4,43,423,88,,,,,,,,,,,,2023-04-07_19h51.49.465,FaceAttractiveness,2022.2.5,144.75299346898925,
treatment,0% Never,100% Always,images\ NASALTIP_006_M_F_N_A.png,0,0,0,0,4,44,424,57,,,,,,,,,,,,2023-04-07_19h51.49.465,FaceAttractiveness,2022.2.5,144.75299346898925,
treatment,0% Never,100% Always,images\ LCHEEK_087_M_M_N_A.png,0,0,0,0,4,45,425,21,,,,,,,,,,,,2023-04-07_19h51.49.465,FaceAttractiveness,2022.2.5,144.75299346898925,
treatment,0% Never,100% Always,images\FOREHEAD_CFD_LF_224_176_N.png,0,0,0,0,4,46,426,12,,,,,,,,,,,,2023-04-07_19h51.49.465,FaceAttractiveness,2022.2.5,144.75299346898925,
treatment,0% Never,100% Always,"images\ LCHEEK_CFD_WF_002_004_N.png
",0,0,0,0,4,47,427,34,,,,,,,,,,,,2023-04-07_19h51.49.465,FaceAttractiveness,2022.2.5,144.75299346898925,
treatment,0% Never,100% Always,images\ NASALTIP_CFD_AF_245_143_N.png,0,0,0,0,4,48,428,63,,,,,,,,,,,,2023-04-07_19h51.49.465,FaceAttractiveness,2022.2.5,144.75299346898925,
treatment,0% Never,100% Always,images\ RCHEEK_CFD_BF_224_002_N.png,0,0,0,0,4,49,429,85,,,,,,,,,,,,2023-04-07_19h51.49.465,FaceAttractiveness,2022.2.5,144.75299346898925,
treatment,0% Never,100% Always,images\FOREHEAD_CFD_AF_245_143_N.png,0,0,0,0,4,50,430,6,,,,,,,,,,,,2023-04-07_19h51.49.465,FaceAttractiveness,2022.2.5,144.75299346898925,
treatment,0% Never,100% Always,images\FOREHEAD_CFD_WF_250_167_N.png,0,0,0,0,4,51,431,17,,,,,,,,,,,,2023-04-07_19h51.49.465,FaceAttractiveness,2022.2.5,144.75299346898925,
treatment,0% Never,100% Always,"images\ LIP_CFD_BM_234_172_N.png
",0,0,0,0,4,52,432,49,,,,,,,,,,,,2023-04-07_19h51.49.465,FaceAttractiveness,2022.2.5,144.75299346898925,
treatment,0% Never,100% Always,"images\ NASALTIP_CFD_AM_233_236_N.png
",0,0,0,0,4,53,433,64,,,,,,,,,,,,2023-04-07_19h51.49.465,FaceAttractiveness,2022.2.5,144.75299346898925,
treatment,0% Never,100% Always,images\ LIP_CFD_LM_201_057_N.png,0,0,0,0,4,54,434,51,,,,,,,,,,,,2023-04-07_19h51.49.465,FaceAttractiveness,2022.2.5,144.75299346898925,
treatment,0% Never,100% Always,images\ NASALTIP_CFD_BF_224_002_N.png,0,0,0,0,4,55,435,66,,,,,,,,,,,,2023-04-07_19h51.49.465,FaceAttractiveness,2022.2.5,144.75299346898925,
treatment,0% Never,100% Always,images\FOREHEAD_CFD_WM_212_097_N.png,0,0,0,0,4,56,436,18,,,,,,,,,,,,2023-04-07_19h51.49.465,FaceAttractiveness,2022.2.5,144.75299346898925,
treatment,0% Never,100% Always,images\ RCHEEK_CFD_AF_245_143_N.png,0,0,0,0,4,57,437,82,,,,,,,,,,,,2023-04-07_19h51.49.465,FaceAttractiveness,2022.2.5,144.75299346898925,
treatment,0% Never,100% Always,images\ LCHEEK_CFD_LF_224_176_N.png,0,0,0,0,4,58,438,31,,,,,,,,,,,,2023-04-07_19h51.49.465,FaceAttractiveness,2022.2.5,144.75299346898925,
treatment,0% Never,100% Always,images\ LCHEEK_CFD_WF_250_167_N.png,0,0,0,0,4,59,439,36,,,,,,,,,,,,2023-04-07_19h51.49.465,FaceAttractiveness,2022.2.5,144.75299346898925,
treatment,0% Never,100% Always,images\ LIP_CFD_WM_212_097_N.png,0,0,0,0,4,60,440,56,,,,,,,,,,,,2023-04-07_19h51.49.465,FaceAttractiveness,2022.2.5,144.75299346898925,
treatment,0% Never,100% Always,images\ NASALTIP_CFD_LF_224_176_N.png,0,0,0,0,4,61,441,69,,,,,,,,,,,,2023-04-07_19h51.49.465,FaceAttractiveness,2022.2.5,144.75299346898925,
treatment,0% Never,100% Always,images\ NASALTIP_CFD_WF_200_099_N.png,0,0,0,0,4,62,442,73,,,,,,,,,,,,2023-04-07_19h51.49.465,FaceAttractiveness,2022.2.5,144.75299346898925,
treatment,0% Never,100% Always,images\ LIP_CFD_LF_224_176_N.png,0,0,0,0,4,63,443,50,,,,,,,,,,,,2023-04-07_19h51.49.465,FaceAttractiveness,2022.2.5,144.75299346898925,
treatment,0% Never,100% Always,images\ LCHEEK_CFD_BF_224_002_N.png,0,0,0,0,4,64,444,28,,,,,,,,,,,,2023-04-07_19h51.49.465,FaceAttractiveness,2022.2.5,144.75299346898925,
treatment,0% Never,100% Always,images\FOREHEAD_CFD_LM_201_057_N.png,0,0,0,0,4,65,445,13,,,,,,,,,,,,2023-04-07_19h51.49.465,FaceAttractiveness,2022.2.5,144.75299346898925,
treatment,0% Never,100% Always,images\ LCHEEK_CFD_WF_200_099_N.png,0,0,0,0,4,66,446,35,,,,,,,,,,,,2023-04-07_19h51.49.465,FaceAttractiveness,2022.2.5,144.75299346898925,
treatment,0% Never,100% Always,images\ LIP_CFD_AF_245_143_N.png,0,0,0,0,4,67,447,44,,,,,,,,,,,,2023-04-07_19h51.49.465,FaceAttractiveness,2022.2.5,144.75299346898925,
treatment,0% Never,100% Always,"images\ LCHEEK_136_M_M_N_A.png
",0,0,0,0,4,68,448,22,,,,,,,,,,,,2023-04-07_19h51.49.465,FaceAttractiveness,2022.2.5,144.75299346898925,
treatment,0% Never,100% Always,images\ LIP_CFD_WF_250_167_N.png,0,0,0,0,4,69,449,55,,,,,,,,,,,,2023-04-07_19h51.49.465,FaceAttractiveness,2022.2.5,144.75299346898925,
treatment,0% Never,100% Always,images\FOREHEAD_CFD_WF_200_099_N.png,0,0,0,0,4,70,450,16,,,,,,,,,,,,2023-04-07_19h51.49.465,FaceAttractiveness,2022.2.5,144.75299346898925,
treatment,0% Never,100% Always,images\ LCHEEK_006_M_F_N_A.png,0,0,0,0,4,71,451,19,,,,,,,,,,,,2023-04-07_19h51.49.465,FaceAttractiveness,2022.2.5,144.75299346898925,
treatment,0% Never,100% Always,images\ RCHEEK_035_M_F_N_A.png,0,0,0,0,4,72,452,77,,,,,,,,,,,,2023-04-07_19h51.49.465,FaceAttractiveness,2022.2.5,144.75299346898925,
treatment,0% Never,100% Always,images\FOREHEAD_CFD_LM_203_026_N.png,0,0,0,0,4,73,453,14,,,,,,,,,,,,2023-04-07_19h51.49.465,FaceAttractiveness,2022.2.5,144.75299346898925,
treatment,0% Never,100% Always,images\ NASALTIP_CFD_AF_231_357_N.png,0,0,0,0,4,74,454,61,,,,,,,,,,,,2023-04-07_19h51.49.465,FaceAttractiveness,2022.2.5,144.75299346898925,
treatment,0% Never,100% Always,"images\ LCHEEK_CFD_BM_234_172_N.png
",0,0,0,0,4,75,455,30,,,,,,,,,,,,2023-04-07_19h51.49.465,FaceAttractiveness,2022.2.5,144.75299346898925,
treatment,0% Never,100% Always,"images\ LIP_136_M_M_N_A.png
",0,0,0,0,4,76,456,41,,,,,,,,,,,,2023-04-07_19h51.49.465,FaceAttractiveness,2022.2.5,144.75299346898925,
treatment,0% Never,100% Always,images\FOREHEAD_CFD_AF_237_223_N.png,0,0,0,0,4,77,457,5,,,,,,,,,,,,2023-04-07_19h51.49.465,FaceAttractiveness,2022.2.5,144.75299346898925,
treatment,0% Never,100% Always,images\ LIP_CFD_BM_213_134_N.png,0,0,0,0,4,78,458,48,,,,,,,,,,,,2023-04-07_19h51.49.465,FaceAttractiveness,2022.2.5,144.75299346898925,
treatment,0% Never,100% Always,images\ LIP_CFD_BF_214_308_N.png,0,0,0,0,4,79,459,46,,,,,,,,,,,,2023-04-07_19h51.49.465,FaceAttractiveness,2022.2.5,144.75299346898925,
treatment,0% Never,100% Always,images\FOREHEAD_136_M_M_N_A.png,0,0,0,0,4,80,460,3,,,,,,,,,,,,2023-04-07_19h51.49.465,FaceAttractiveness,2022.2.5,144.75299346898925,
treatment,0% Never,100% Always,images\ LCHEEK_CFD_LM_203_026_N.png,0,0,0,0,4,81,461,33,,,,,,,,,,,,2023-04-07_19h51.49.465,FaceAttractiveness,2022.2.5,144.75299346898925,
treatment,0% Never,100% Always,"images\ LIP_CFD_WF_002_004_N.png
",0,0,0,0,4,82,462,53,,,,,,,,,,,,2023-04-07_19h51.49.465,FaceAttractiveness,2022.2.5,144.75299346898925,
treatment,0% Never,100% Always,"images\ NASALTIP_CFD_BM_234_172_N.png
",0,0,0,0,4,83,463,68,,,,,,,,,,,,2023-04-07_19h51.49.465,FaceAttractiveness,2022.2.5,144.75299346898925,
treatment,0% Never,100% Always,images\ NASALTIP_087_M_M_N_A.png,0,0,0,0,4,84,464,59,,,,,,,,,,,,2023-04-07_19h51.49.465,FaceAttractiveness,2022.2.5,144.75299346898925,
treatment,0% Never,100% Always,images\ LIP_CFD_AF_237_223_N.png,0,0,0,0,4,85,465,43,,,,,,,,,,,,2023-04-07_19h51.49.465,FaceAttractiveness,2022.2.5,144.75299346898925,
treatment,0% Never,100% Always,images\ NASALTIP_CFD_LM_201_057_N.png,0,0,0,0,4,86,466,70,,,,,,,,,,,,2023-04-07_19h51.49.465,FaceAttractiveness,2022.2.5,144.75299346898925,
treatment,0% Never,100% Always,images\FOREHEAD_CFD_BM_234_172_N.png,0,0,0,0,4,87,467,11,,,,,,,,,,,,2023-04-07_19h51.49.465,FaceAttractiveness,2022.2.5,144.75299346898925,
treatment,0% Never,100% Always,images\ NASALTIP_CFD_WF_250_167_N.png,0,0,0,0,4,88,468,74,,,,,,,,,,,,2023-04-07_19h51.49.465,FaceAttractiveness,2022.2.5,144.75299346898925,
treatment,0% Never,100% Always,images\FOREHEAD_CFD_WF_002_004_N.png,0,0,0,0,4,89,469,15,,,,,,,,,,,,2023-04-07_19h51.49.465,FaceAttractiveness,2022.2.5,144.75299346898925,
treatment,0% Never,100% Always,images\FOREHEAD_CFD_BF_224_002_N.png,0,0,0,0,4,90,470,9,,,,,,,,,,,,2023-04-07_19h51.49.465,FaceAttractiveness,2022.2.5,144.75299346898925,
treatment,0% Never,100% Always,images\FOREHEAD_CFD_BM_213_134_N.png,0,0,0,0,4,91,471,10,,,,,,,,,,,,2023-04-07_19h51.49.465,FaceAttractiveness,2022.2.5,144.75299346898925,
treatment,0% Never,100% Always,images\ LCHEEK_CFD_AF_231_357_N.png,0,0,0,0,4,92,472,23,,,,,,,,,,,,2023-04-07_19h51.49.465,FaceAttractiveness,2022.2.5,144.75299346898925,
treatment,0% Never,100% Always,images\ LCHEEK_CFD_AF_245_143_N.png,0,0,0,0,4,93,473,25,,,,,,,,,,,,2023-04-07_19h51.49.465,FaceAttractiveness,2022.2.5,144.75299346898925,
treatment,0% Never,100% Always,"images\ RCHEEK_CFD_AM_233_236_N.png
",0,0,0,0,4,94,474,83,,,,,,,,,,,,2023-04-07_19h51.49.465,FaceAttractiveness,2022.2.5,144.75299346898925,
treatment,0% Never,100% Always,images\ LIP_CFD_LM_201_057_N.png,0,0,0,0,5,0,475,51,,,,,,,,,,,,2023-04-07_19h51.49.465,FaceAttractiveness,2022.2.5,144.75299346898925,
treatment,0% Never,100% Always,images\FOREHEAD_087_M_M_N_A.png,0,0,0,0,5,1,476,2,,,,,,,,,,,,2023-04-07_19h51.49.465,FaceAttractiveness,2022.2.5,144.75299346898925,
treatment,0% Never,100% Always,images\ RCHEEK_006_M_F_N_A.png,0,0,0,0,5,2,477,76,,,,,,,,,,,,2023-04-07_19h51.49.465,FaceAttractiveness,2022.2.5,144.75299346898925,
treatment,0% Never,100% Always,images\ NASALTIP_CFD_BF_224_002_N.png,0,0,0,0,5,3,478,66,,,,,,,,,,,,2023-04-07_19h51.49.465,FaceAttractiveness,2022.2.5,144.75299346898925,
treatment,0% Never,100% Always,images\ NASALTIP_087_M_M_N_A.png,0,0,0,0,5,4,479,59,,,,,,,,,,,,2023-04-07_19h51.49.465,FaceAttractiveness,2022.2.5,144.75299346898925,
treatment,0% Never,100% Always,images\FOREHEAD_CFD_WF_002_004_N.png,0,0,0,0,5,5,480,15,,,,,,,,,,,,2023-04-07_19h51.49.465,FaceAttractiveness,2022.2.5,144.75299346898925,
treatment,0% Never,100% Always,images\ LCHEEK_CFD_WF_200_099_N.png,0,0,0,0,5,6,481,35,,,,,,,,,,,,2023-04-07_19h51.49.465,FaceAttractiveness,2022.2.5,144.75299346898925,
treatment,0% Never,100% Always,images\ LCHEEK_087_M_M_N_A.png,0,0,0,0,5,7,482,21,,,,,,,,,,,,2023-04-07_19h51.49.465,FaceAttractiveness,2022.2.5,144.75299346898925,
treatment,0% Never,100% Always,"images\ LCHEEK_CFD_BM_234_172_N.png
",0,0,0,0,5,8,483,30,,,,,,,,,,,,2023-04-07_19h51.49.465,FaceAttractiveness,2022.2.5,144.75299346898925,
treatment,0% Never,100% Always,images\ NASALTIP_CFD_BM_213_134_N.png,0,0,0,0,5,9,484,67,,,,,,,,,,,,2023-04-07_19h51.49.465,FaceAttractiveness,2022.2.5,144.75299346898925,
treatment,0% Never,100% Always,images\ LCHEEK_CFD_WF_250_167_N.png,0,0,0,0,5,10,485,36,,,,,,,,,,,,2023-04-07_19h51.49.465,FaceAttractiveness,2022.2.5,144.75299346898925,
treatment,0% Never,100% Always,images\FOREHEAD_CFD_BF_224_002_N.png,0,0,0,0,5,11,486,9,,,,,,,,,,,,2023-04-07_19h51.49.465,FaceAttractiveness,2022.2.5,144.75299346898925,
treatment,0% Never,100% Always,images\FOREHEAD_CFD_WF_200_099_N.png,0,0,0,0,5,12,487,16,,,,,,,,,,,,2023-04-07_19h51.49.465,FaceAttractiveness,2022.2.5,144.75299346898925,
treatment,0% Never,100% Always,images\ NASALTIP_CFD_AF_245_143_N.png,0,0,0,0,5,13,488,63,,,,,,,,,,,,2023-04-07_19h51.49.465,FaceAttractiveness,2022.2.5,144.75299346898925,
treatment,0% Never,100% Always,images\ RCHEEK_CFD_WF_200_099_N.png,0,0,0,0,5,14,489,92,,,,,,,,,,,,2023-04-07_19h51.49.465,FaceAttractiveness,2022.2.5,144.75299346898925,
treatment,0% Never,100% Always,images\ LCHEEK_CFD_BM_213_134_N.png,0,0,0,0,5,15,490,29,,,,,,,,,,,,2023-04-07_19h51.49.465,FaceAttractiveness,2022.2.5,144.75299346898925,
treatment,0% Never,100% Always,"images\ NASALTIP_CFD_AM_233_236_N.png
",0,0,0,0,5,16,491,64,,,,,,,,,,,,2023-04-07_19h51.49.465,FaceAttractiveness,2022.2.5,144.75299346898925,
treatment,0% Never,100% Always,images\ NASALTIP_CFD_AF_237_223_N.png,0,0,0,0,5,17,492,62,,,,,,,,,,,,2023-04-07_19h51.49.465,FaceAttractiveness,2022.2.5,144.75299346898925,
treatment,0% Never,100% Always,images\ LCHEEK_CFD_AF_237_223_N.png,0,0,0,0,5,18,493,24,,,,,,,,,,,,2023-04-07_19h51.49.465,FaceAttractiveness,2022.2.5,144.75299346898925,
treatment,0% Never,100% Always,images\ LCHEEK_CFD_WM_212_097_N.png,0,0,0,0,5,19,494,37,,,,,,,,,,,,2023-04-07_19h51.49.465,FaceAttractiveness,2022.2.5,144.75299346898925,
treatment,0% Never,100% Always,images\ RCHEEK_035_M_F_N_A.png,0,0,0,0,5,20,495,77,,,,,,,,,,,,2023-04-07_19h51.49.465,FaceAttractiveness,2022.2.5,144.75299346898925,
treatment,0% Never,100% Always,images\ RCHEEK_087_M_M_N_A.png,0,0,0,0,5,21,496,78,,,,,,,,,,,,2023-04-07_19h51.49.465,FaceAttractiveness,2022.2.5,144.75299346898925,
treatment,0% Never,100% Always,"images\ LIP_136_M_M_N_A.png
",0,0,0,0,5,22,497,41,,,,,,,,,,,,2023-04-07_19h51.49.465,FaceAttractiveness,2022.2.5,144.75299346898925,
treatment,0% Never,100% Always,"images\ NASALTIP_CFD_WF_002_004_N.png
",0,0,0,0,5,23,498,72,,,,,,,,,,,,2023-04-07_19h51.49.465,FaceAttractiveness,2022.2.5,144.75299346898925,
treatment,0% Never,100% Always,images\ LIP_CFD_LF_224_176_N.png,0,0,0,0,5,24,499,50,,,,,,,,,,,,2023-04-07_19h51.49.465,FaceAttractiveness,2022.2.5,144.75299346898925,
treatment,0% Never,100% Always,"images\ LCHEEK_136_M_M_N_A.png
",0,0,0,0,5,25,500,22,,,,,,,,,,,,2023-04-07_19h51.49.465,FaceAttractiveness,2022.2.5,144.75299346898925,
treatment,0% Never,100% Always,images\ RCHEEK_CFD_BM_213_134_N.png,0,0,0,0,5,26,501,86,,,,,,,,,,,,2023-04-07_19h51.49.465,FaceAttractiveness,2022.2.5,144.75299346898925,
treatment,0% Never,100% Always,images\ RCHEEK_CFD_BF_224_002_N.png,0,0,0,0,5,27,502,85,,,,,,,,,,,,2023-04-07_19h51.49.465,FaceAttractiveness,2022.2.5,144.75299346898925,
treatment,0% Never,100% Always,images\ LCHEEK_CFD_BF_214_308_N.png,0,0,0,0,5,28,503,27,,,,,,,,,,,,2023-04-07_19h51.49.465,FaceAttractiveness,2022.2.5,144.75299346898925,
treatment,0% Never,100% Always,images\ RCHEEK_CFD_AF_245_143_N.png,0,0,0,0,5,29,504,82,,,,,,,,,,,,2023-04-07_19h51.49.465,FaceAttractiveness,2022.2.5,144.75299346898925,
treatment,0% Never,100% Always,images\FOREHEAD_CFD_AF_237_223_N.png,0,0,0,0,5,30,505,5,,,,,,,,,,,,2023-04-07_19h51.49.465,FaceAttractiveness,2022.2.5,144.75299346898925,
treatment,0% Never,100% Always,"images\ RCHEEK_136_M_M_N_A.png
",0,0,0,0,5,31,506,79,,,,,,,,,,,,2023-04-07_19h51.49.465,FaceAttractiveness,2022.2.5,144.75299346898925,
treatment,0% Never,100% Always,images\FOREHEAD_CFD_WM_212_097_N.png,0,0,0,0,5,32,507,18,,,,,,,,,,,,2023-04-07_19h51.49.465,FaceAttractiveness,2022.2.5,144.75299346898925,
treatment,0% Never,100% Always,"images\ LCHEEK_CFD_WF_002_004_N.png
",0,0,0,0,5,33,508,34,,,,,,,,,,,,2023-04-07_19h51.49.465,FaceAttractiveness,2022.2.5,144.75299346898925,
treatment,0% Never,100% Always,images\ NASALTIP_CFD_AF_231_357_N.png,0,0,0,0,5,34,509,61,,,,,,,,,,,,2023-04-07_19h51.49.465,FaceAttractiveness,2022.2.5,144.75299346898925,
treatment,0% Never,100% Always,images\ NASALTIP_035_M_F_N_A.png,0,0,0,0,5,35,510,58,,,,,,,,,,,,2023-04-07_19h51.49.465,FaceAttractiveness,2022.2.5,144.75299346898925,
treatment,0% Never,100% Always,images\ LIP_CFD_WF_200_099_N.png,0,0,0,0,5,36,511,54,,,,,,,,,,,,2023-04-07_19h51.49.465,FaceAttractiveness,2022.2.5,144.75299346898925,
treatment,0% Never,100% Always,"images\ LIP_CFD_BM_234_172_N.png
",0,0,0,0,5,37,512,49,,,,,,,,,,,,2023-04-07_19h51.49.465,FaceAttractiveness,2022.2.5,144.75299346898925,
treatment,0% Never,100% Always,images\ LCHEEK_035_M_F_N_A.png,0,0,0,0,5,38,513,20,,,,,,,,,,,,2023-04-07_19h51.49.465,FaceAttractiveness,2022.2.5,144.75299346898925,
treatment,0% Never,100% Always,images\ RCHEEK_CFD_AF_237_223_N.png,0,0,0,0,5,39,514,81,,,,,,,,,,,,2023-04-07_19h51.49.465,FaceAttractiveness,2022.2.5,144.75299346898925,
treatment,0% Never,100% Always,images\ RCHEEK_CFD_LM_201_057_N.png,0,0,0,0,5,40,515,89,,,,,,,,,,,,2023-04-07_19h51.49.465,FaceAttractiveness,2022.2.5,144.75299346898925,
treatment,0% Never,100% Always,images\ LIP_CFD_AF_245_143_N.png,0,0,0,0,5,41,516,44,,,,,,,,,,,,2023-04-07_19h51.49.465,FaceAttractiveness,2022.2.5,144.75299346898925,
treatment,0% Never,100% Always,"images\ NASALTIP_CFD_BM_234_172_N.png
",0,0,0,0,5,42,517,68,,,,,,,,,,,,2023-04-07_19h51.49.465,FaceAttractiveness,2022.2.5,144.75299346898925,
treatment,0% Never,100% Always,images\ LCHEEK_006_M_F_N_A.png,0,0,0,0,5,43,518,19,,,,,,,,,,,,2023-04-07_19h51.49.465,FaceAttractiveness,2022.2.5,144.75299346898925,
treatment,0% Never,100% Always,"images\ LIP_CFD_AM_233_236_N.png
",0,0,0,0,5,44,519,45,,,,,,,,,,,,2023-04-07_19h51.49.465,FaceAttractiveness,2022.2.5,144.75299346898925,
treatment,0% Never,100% Always,images\ NASALTIP_CFD_WM_212_097_N.png,0,0,0,0,5,45,520,75,,,,,,,,,,,,2023-04-07_19h51.49.465,FaceAttractiveness,2022.2.5,144.75299346898925,
treatment,0% Never,100% Always,images\FOREHEAD_CFD_AF_245_143_N.png,0,0,0,0,5,46,521,6,,,,,,,,,,,,2023-04-07_19h51.49.465,FaceAttractiveness,2022.2.5,144.75299346898925,
treatment,0% Never,100% Always,images\ LIP_087_M_M_N_A.png,0,0,0,0,5,47,522,40,,,,,,,,,,,,2023-04-07_19h51.49.465,FaceAttractiveness,2022.2.5,144.75299346898925,
treatment,0% Never,100% Always,images\ RCHEEK_CFD_AF_231_357_N.png,0,0,0,0,5,48,523,80,,,,,,,,,,,,2023-04-07_19h51.49.465,FaceAttractiveness,2022.2.5,144.75299346898925,
treatment,0% Never,100% Always,images\ NASALTIP_006_M_F_N_A.png,0,0,0,0,5,49,524,57,,,,,,,,,,,,2023-04-07_19h51.49.465,FaceAttractiveness,2022.2.5,144.75299346898925,
treatment,0% Never,100% Always,"images\ NASALTIP_136_M_M_N_A.png
",0,0,0,0,5,50,525,60,,,,,,,,,,,,2023-04-07_19h51.49.465,FaceAttractiveness,2022.2.5,144.75299346898925,
treatment,0% Never,100% Always,images\ LIP_CFD_BM_213_134_N.png,0,0,0,0,5,51,526,48,,,,,,,,,,,,2023-04-07_19h51.49.465,FaceAttractiveness,2022.2.5,144.75299346898925,
treatment,0% Never,100% Always,"images\ RCHEEK_CFD_WF_002_004_N.png
",0,0,0,0,5,52,527,91,,,,,,,,,,,,2023-04-07_19h51.49.465,FaceAttractiveness,2022.2.5,144.75299346898925,
treatment,0% Never,100% Always,"images\ RCHEEK_CFD_AM_233_236_N.png
",0,0,0,0,5,53,528,83,,,,,,,,,,,,2023-04-07_19h51.49.465,FaceAttractiveness,2022.2.5,144.75299346898925,
treatment,0% Never,100% Always,images\ NASALTIP_CFD_LF_224_176_N.png,0,0,0,0,5,54,529,69,,,,,,,,,,,,2023-04-07_19h51.49.465,FaceAttractiveness,2022.2.5,144.75299346898925,
treatment,0% Never,100% Always,images\ NASALTIP_CFD_WF_200_099_N.png,0,0,0,0,5,55,530,73,,,,,,,,,,,,2023-04-07_19h51.49.465,FaceAttractiveness,2022.2.5,144.75299346898925,
treatment,0% Never,100% Always,images\FOREHEAD_CFD_LM_203_026_N.png,0,0,0,0,5,56,531,14,,,,,,,,,,,,2023-04-07_19h51.49.465,FaceAttractiveness,2022.2.5,144.75299346898925,
treatment,0% Never,100% Always,images\ LCHEEK_CFD_AF_245_143_N.png,0,0,0,0,5,57,532,25,,,,,,,,,,,,2023-04-07_19h51.49.465,FaceAttractiveness,2022.2.5,144.75299346898925,
treatment,0% Never,100% Always,images\ NASALTIP_CFD_LM_203_026_N.png,0,0,0,0,5,58,533,71,,,,,,,,,,,,2023-04-07_19h51.49.465,FaceAttractiveness,2022.2.5,144.75299346898925,
treatment,0% Never,100% Always,images\ LIP_CFD_WF_250_167_N.png,0,0,0,0,5,59,534,55,,,,,,,,,,,,2023-04-07_19h51.49.465,FaceAttractiveness,2022.2.5,144.75299346898925,
treatment,0% Never,100% Always,images\ NASALTIP_CFD_LM_201_057_N.png,0,0,0,0,5,60,535,70,,,,,,,,,,,,2023-04-07_19h51.49.465,FaceAttractiveness,2022.2.5,144.75299346898925,
treatment,0% Never,100% Always,images\FOREHEAD_CFD_LF_224_176_N.png,0,0,0,0,5,61,536,12,,,,,,,,,,,,2023-04-07_19h51.49.465,FaceAttractiveness,2022.2.5,144.75299346898925,
treatment,0% Never,100% Always,images\FOREHEAD_CFD_BM_213_134_N.png,0,0,0,0,5,62,537,10,,,,,,,,,,,,2023-04-07_19h51.49.465,FaceAttractiveness,2022.2.5,144.75299346898925,
treatment,0% Never,100% Always,"images\ LCHEEK_CFD_AM_233_236_N.png
",0,0,0,0,5,63,538,26,,,,,,,,,,,,2023-04-07_19h51.49.465,FaceAttractiveness,2022.2.5,144.75299346898925,
treatment,0% Never,100% Always,images\ NASALTIP_CFD_BF_214_308_N.png,0,0,0,0,5,64,539,65,,,,,,,,,,,,2023-04-07_19h51.49.465,FaceAttractiveness,2022.2.5,144.75299346898925,
treatment,0% Never,100% Always,images\ LIP_006_M_F_N_A.png,0,0,0,0,5,65,540,38,,,,,,,,,,,,2023-04-07_19h51.49.465,FaceAttractiveness,2022.2.5,144.75299346898925,
treatment,0% Never,100% Always,images\FOREHEAD_035_M_F_N_A.png,0,0,0,0,5,66,541,1,,,,,,,,,,,,2023-04-07_19h51.49.465,FaceAttractiveness,2022.2.5,144.75299346898925,
treatment,0% Never,100% Always,images\ LIP_CFD_BF_214_308_N.png,0,0,0,0,5,67,542,46,,,,,,,,,,,,2023-04-07_19h51.49.465,FaceAttractiveness,2022.2.5,144.75299346898925,
treatment,0% Never,100% Always,images\FOREHEAD_006_M_F_N_A.png,0,0,0,0,5,68,543,0,,,,,,,,,,,,2023-04-07_19h51.49.465,FaceAttractiveness,2022.2.5,144.75299346898925,
treatment,0% Never,100% Always,images\FOREHEAD_CFD_AF_231_357_N.png,0,0,0,0,5,69,544,4,,,,,,,,,,,,2023-04-07_19h51.49.465,FaceAttractiveness,2022.2.5,144.75299346898925,
treatment,0% Never,100% Always,images\ LCHEEK_CFD_AF_231_357_N.png,0,0,0,0,5,70,545,23,,,,,,,,,,,,2023-04-07_19h51.49.465,FaceAttractiveness,2022.2.5,144.75299346898925,
treatment,0% Never,100% Always,images\ RCHEEK_CFD_WM_212_097_N.png,0,0,0,0,5,71,546,94,,,,,,,,,,,,2023-04-07_19h51.49.465,FaceAttractiveness,2022.2.5,144.75299346898925,
treatment,0% Never,100% Always,images\ RCHEEK_CFD_LM_203_026_N.png,0,0,0,0,5,72,547,90,,,,,,,,,,,,2023-04-07_19h51.49.465,FaceAttractiveness,2022.2.5,144.75299346898925,
treatment,0% Never,100% Always,images\FOREHEAD_CFD_LM_201_057_N.png,0,0,0,0,5,73,548,13,,,,,,,,,,,,2023-04-07_19h51.49.465,FaceAttractiveness,2022.2.5,144.75299346898925,
treatment,0% Never,100% Always,images\ LCHEEK_CFD_LM_203_026_N.png,0,0,0,0,5,74,549,33,,,,,,,,,,,,2023-04-07_19h51.49.465,FaceAttractiveness,2022.2.5,144.75299346898925,
treatment,0% Never,100% Always,images\ LIP_CFD_LM_203_026_N.png,0,0,0,0,5,75,550,52,,,,,,,,,,,,2023-04-07_19h51.49.465,FaceAttractiveness,2022.2.5,144.75299346898925,
treatment,0% Never,100% Always,images\ LIP_035_M_F_N_A.png,0,0,0,0,5,76,551,39,,,,,,,,,,,,2023-04-07_19h51.49.465,FaceAttractiveness,2022.2.5,144.75299346898925,
treatment,0% Never,100% Always,"images\ LIP_CFD_WF_002_004_N.png
",0,0,0,0,5,77,552,53,,,,,,,,,,,,2023-04-07_19h51.49.465,FaceAttractiveness,2022.2.5,144.75299346898925,
treatment,0% Never,100% Always,images\ LIP_CFD_AF_231_357_N.png,0,0,0,0,5,78,553,42,,,,,,,,,,,,2023-04-07_19h51.49.465,FaceAttractiveness,2022.2.5,144.75299346898925,
treatment,0% Never,100% Always,images\ LIP_CFD_AF_237_223_N.png,0,0,0,0,5,79,554,43,,,,,,,,,,,,2023-04-07_19h51.49.465,FaceAttractiveness,2022.2.5,144.75299346898925,
treatment,0% Never,100% Always,images\ LCHEEK_CFD_LF_224_176_N.png,0,0,0,0,5,80,555,31,,,,,,,,,,,,2023-04-07_19h51.49.465,FaceAttractiveness,2022.2.5,144.75299346898925,
treatment,0% Never,100% Always,images\ RCHEEK_CFD_LF_224_176_N.png,0,0,0,0,5,81,556,88,,,,,,,,,,,,2023-04-07_19h51.49.465,FaceAttractiveness,2022.2.5,144.75299346898925,
treatment,0% Never,100% Always,images\ RCHEEK_CFD_BF_214_308_N.png,0,0,0,0,5,82,557,84,,,,,,,,,,,,2023-04-07_19h51.49.465,FaceAttractiveness,2022.2.5,144.75299346898925,
treatment,0% Never,100% Always,images\ RCHEEK_CFD_WF_250_167_N.png,0,0,0,0,5,83,558,93,,,,,,,,,,,,2023-04-07_19h51.49.465,FaceAttractiveness,2022.2.5,144.75299346898925,
treatment,0% Never,100% Always,images\FOREHEAD_CFD_BM_234_172_N.png,0,0,0,0,5,84,559,11,,,,,,,,,,,,2023-04-07_19h51.49.465,FaceAttractiveness,2022.2.5,144.75299346898925,
treatment,0% Never,100% Always,images\ LCHEEK_CFD_LM_201_057_N.png,0,0,0,0,5,85,560,32,,,,,,,,,,,,2023-04-07_19h51.49.465,FaceAttractiveness,2022.2.5,144.75299346898925,
treatment,0% Never,100% Always,images\FOREHEAD_CFD_BF_214_308_N.png,0,0,0,0,5,86,561,8,,,,,,,,,,,,2023-04-07_19h51.49.465,FaceAttractiveness,2022.2.5,144.75299346898925,
treatment,0% Never,100% Always,images\FOREHEAD_136_M_M_N_A.png,0,0,0,0,5,87,562,3,,,,,,,,,,,,2023-04-07_19h51.49.465,FaceAttractiveness,2022.2.5,144.75299346898925,
treatment,0% Never,100% Always,images\ LIP_CFD_BF_224_002_N.png,0,0,0,0,5,88,563,47,,,,,,,,,,,,2023-04-07_19h51.49.465,FaceAttractiveness,2022.2.5,144.75299346898925,
treatment,0% Never,100% Always,images\ LCHEEK_CFD_BF_224_002_N.png,0,0,0,0,5,89,564,28,,,,,,,,,,,,2023-04-07_19h51.49.465,FaceAttractiveness,2022.2.5,144.75299346898925,
treatment,0% Never,100% Always,images\ LIP_CFD_WM_212_097_N.png,0,0,0,0,5,90,565,56,,,,,,,,,,,,2023-04-07_19h51.49.465,FaceAttractiveness,2022.2.5,144.75299346898925,
treatment,0% Never,100% Always,images\ NASALTIP_CFD_WF_250_167_N.png,0,0,0,0,5,91,566,74,,,,,,,,,,,,2023-04-07_19h51.49.465,FaceAttractiveness,2022.2.5,144.75299346898925,
treatment,0% Never,100% Always,images\FOREHEAD_CFD_WF_250_167_N.png,0,0,0,0,5,92,567,17,,,,,,,,,,,,2023-04-07_19h51.49.465,FaceAttractiveness,2022.2.5,144.75299346898925,
treatment,0% Never,100% Always,"images\ RCHEEK_CFD_BM_234_172_N.png
",0,0,0,0,5,93,568,87,,,,,,,,,,,,2023-04-07_19h51.49.465,FaceAttractiveness,2022.2.5,144.75299346898925,
treatment,0% Never,100% Always,images\FOREHEAD_CFD_AM_233_236_N.png,0,0,0,0,5,94,569,7,,,,,,,,,,,,2023-04-07_19h51.49.465,FaceAttractiveness,2022.2.5,144.75299346898925,
treatment,0% Never,100% Always,images\FOREHEAD_006_M_F_N_A.png,0,0,0,0,6,0,570,0,,,,,,,,,,,,2023-04-07_19h51.49.465,FaceAttractiveness,2022.2.5,144.75299346898925,
treatment,0% Never,100% Always,images\ LIP_CFD_LF_224_176_N.png,0,0,0,0,6,1,571,50,,,,,,,,,,,,2023-04-07_19h51.49.465,FaceAttractiveness,2022.2.5,144.75299346898925,
treatment,0% Never,100% Always,images\ LIP_035_M_F_N_A.png,0,0,0,0,6,2,572,39,,,,,,,,,,,,2023-04-07_19h51.49.465,FaceAttractiveness,2022.2.5,144.75299346898925,
treatment,0% Never,100% Always,"images\ RCHEEK_CFD_WF_002_004_N.png
",0,0,0,0,6,3,573,91,,,,,,,,,,,,2023-04-07_19h51.49.465,FaceAttractiveness,2022.2.5,144.75299346898925,
treatment,0% Never,100% Always,images\ LIP_CFD_WM_212_097_N.png,0,0,0,0,6,4,574,56,,,,,,,,,,,,2023-04-07_19h51.49.465,FaceAttractiveness,2022.2.5,144.75299346898925,
treatment,0% Never,100% Always,images\ NASALTIP_CFD_BF_214_308_N.png,0,0,0,0,6,5,575,65,,,,,,,,,,,,2023-04-07_19h51.49.465,FaceAttractiveness,2022.2.5,144.75299346898925,
treatment,0% Never,100% Always,images\FOREHEAD_CFD_BM_213_134_N.png,0,0,0,0,6,6,576,10,,,,,,,,,,,,2023-04-07_19h51.49.465,FaceAttractiveness,2022.2.5,144.75299346898925,
treatment,0% Never,100% Always,images\ RCHEEK_087_M_M_N_A.png,0,0,0,0,6,7,577,78,,,,,,,,,,,,2023-04-07_19h51.49.465,FaceAttractiveness,2022.2.5,144.75299346898925,
treatment,0% Never,100% Always,images\ LCHEEK_CFD_WF_250_167_N.png,0,0,0,0,6,8,578,36,,,,,,,,,,,,2023-04-07_19h51.49.465,FaceAttractiveness,2022.2.5,144.75299346898925,
treatment,0% Never,100% Always,images\ LCHEEK_CFD_AF_231_357_N.png,0,0,0,0,6,9,579,23,,,,,,,,,,,,2023-04-07_19h51.49.465,FaceAttractiveness,2022.2.5,144.75299346898925,
treatment,0% Never,100% Always,images\ LCHEEK_CFD_BF_224_002_N.png,0,0,0,0,6,10,580,28,,,,,,,,,,,,2023-04-07_19h51.49.465,FaceAttractiveness,2022.2.5,144.75299346898925,
treatment,0% Never,100% Always,images\ LIP_CFD_LM_203_026_N.png,0,0,0,0,6,11,581,52,,,,,,,,,,,,2023-04-07_19h51.49.465,FaceAttractiveness,2022.2.5,144.75299346898925,
treatment,0% Never,100% Always,images\ LCHEEK_CFD_AF_245_143_N.png,0,0,0,0,6,12,582,25,,,,,,,,,,,,2023-04-07_19h51.49.465,FaceAttractiveness,2022.2.5,144.75299346898925,
treatment,0% Never,100% Always,images\FOREHEAD_CFD_AF_231_357_N.png,0,0,0,0,6,13,583,4,,,,,,,,,,,,2023-04-07_19h51.49.465,FaceAttractiveness,2022.2.5,144.75299346898925,
treatment,0% Never,100% Always,images\ LCHEEK_CFD_LF_224_176_N.png,0,0,0,0,6,14,584,31,,,,,,,,,,,,2023-04-07_19h51.49.465,FaceAttractiveness,2022.2.5,144.75299346898925,
treatment,0% Never,100% Always,"images\ LCHEEK_CFD_AM_233_236_N.png
",0,0,0,0,6,15,585,26,,,,,,,,,,,,2023-04-07_19h51.49.465,FaceAttractiveness,2022.2.5,144.75299346898925,
treatment,0% Never,100% Always,images\FOREHEAD_CFD_WF_200_099_N.png,0,0,0,0,6,16,586,16,,,,,,,,,,,,2023-04-07_19h51.49.465,FaceAttractiveness,2022.2.5,144.75299346898925,
treatment,0% Never,100% Always,images\ RCHEEK_CFD_BF_224_002_N.png,0,0,0,0,6,17,587,85,,,,,,,,,,,,2023-04-07_19h51.49.465,FaceAttractiveness,2022.2.5,144.75299346898925,
