Task,LeftLabel,RightLabel,faceImages,RatingBlockOrder.thisRepN,RatingBlockOrder.thisTrialN,RatingBlockOrder.thisN,RatingBlockOrder.thisIndex,originalFaceTrials.thisRepN,originalFaceTrials.thisTrialN,originalFaceTrials.thisN,originalFaceTrials.thisIndex,face_image_q.started,slider_trustworthy.started,text_trustworthy.started,slider_aggressive.started,text_aggressive.started,mouse_7.started,Confirm.started,Name,Gender,Age,Ethnicity,date,expName,psychopyVersion,frameRate,
treatment,0% Never,100% Always,images\ LCHEEK_CFD_AF_237_223_N.png,0,0,0,0,0,0,0,24,,,,,,,,,,,,2023-04-07_19h46.49.027,FaceAttractiveness,2022.2.5,145.7441258163273,
treatment,0% Never,100% Always,images\ RCHEEK_CFD_WF_250_167_N.png,0,0,0,0,0,1,1,93,,,,,,,,,,,,2023-04-07_19h46.49.027,FaceAttractiveness,2022.2.5,145.7441258163273,
treatment,0% Never,100% Always,images\ RCHEEK_CFD_WF_200_099_N.png,0,0,0,0,0,2,2,92,,,,,,,,,,,,2023-04-07_19h46.49.027,FaceAttractiveness,2022.2.5,145.7441258163273,
treatment,0% Never,100% Always,images\ LIP_CFD_LM_203_026_N.png,0,0,0,0,0,3,3,52,,,,,,,,,,,,2023-04-07_19h46.49.027,FaceAttractiveness,2022.2.5,145.7441258163273,
treatment,0% Never,100% Always,images\ LIP_CFD_WF_200_099_N.png,0,0,0,0,0,4,4,54,,,,,,,,,,,,2023-04-07_19h46.49.027,FaceAttractiveness,2022.2.5,145.7441258163273,
treatment,0% Never,100% Always,images\FOREHEAD_CFD_WF_002_004_N.png,0,0,0,0,0,5,5,15,,,,,,,,,,,,2023-04-07_19h46.49.027,FaceAttractiveness,2022.2.5,145.7441258163273,
treatment,0% Never,100% Always,images\FOREHEAD_006_M_F_N_A.png,0,0,0,0,0,6,6,0,,,,,,,,,,,,2023-04-07_19h46.49.027,FaceAttractiveness,2022.2.5,145.7441258163273,
treatment,0% Never,100% Always,images\FOREHEAD_CFD_LF_224_176_N.png,0,0,0,0,0,7,7,12,,,,,,,,,,,,2023-04-07_19h46.49.027,FaceAttractiveness,2022.2.5,145.7441258163273,
treatment,0% Never,100% Always,images\ LIP_006_M_F_N_A.png,0,0,0,0,0,8,8,38,,,,,,,,,,,,2023-04-07_19h46.49.027,FaceAttractiveness,2022.2.5,145.7441258163273,
treatment,0% Never,100% Always,images\ RCHEEK_CFD_WM_212_097_N.png,0,0,0,0,0,9,9,94,,,,,,,,,,,,2023-04-07_19h46.49.027,FaceAttractiveness,2022.2.5,145.7441258163273,
treatment,0% Never,100% Always,images\ RCHEEK_CFD_AF_245_143_N.png,0,0,0,0,0,10,10,82,,,,,,,,,,,,2023-04-07_19h46.49.027,FaceAttractiveness,2022.2.5,145.7441258163273,
treatment,0% Never,100% Always,images\ LCHEEK_CFD_LM_201_057_N.png,0,0,0,0,0,11,11,32,,,,,,,,,,,,2023-04-07_19h46.49.027,FaceAttractiveness,2022.2.5,145.7441258163273,
treatment,0% Never,100% Always,images\ LCHEEK_CFD_WF_250_167_N.png,0,0,0,0,0,12,12,36,,,,,,,,,,,,2023-04-07_19h46.49.027,FaceAttractiveness,2022.2.5,145.7441258163273,
treatment,0% Never,100% Always,images\ RCHEEK_CFD_LM_203_026_N.png,0,0,0,0,0,13,13,90,,,,,,,,,,,,2023-04-07_19h46.49.027,FaceAttractiveness,2022.2.5,145.7441258163273,
treatment,0% Never,100% Always,images\ LCHEEK_035_M_F_N_A.png,0,0,0,0,0,14,14,20,,,,,,,,,,,,2023-04-07_19h46.49.027,FaceAttractiveness,2022.2.5,145.7441258163273,
treatment,0% Never,100% Always,images\ LIP_CFD_WM_212_097_N.png,0,0,0,0,0,15,15,56,,,,,,,,,,,,2023-04-07_19h46.49.027,FaceAttractiveness,2022.2.5,145.7441258163273,
treatment,0% Never,100% Always,images\ LCHEEK_CFD_AF_231_357_N.png,0,0,0,0,0,16,16,23,,,,,,,,,,,,2023-04-07_19h46.49.027,FaceAttractiveness,2022.2.5,145.7441258163273,
treatment,0% Never,100% Always,images\ LCHEEK_006_M_F_N_A.png,0,0,0,0,0,17,17,19,,,,,,,,,,,,2023-04-07_19h46.49.027,FaceAttractiveness,2022.2.5,145.7441258163273,
treatment,0% Never,100% Always,"images\ LCHEEK_CFD_AM_233_236_N.png
",0,0,0,0,0,18,18,26,,,,,,,,,,,,2023-04-07_19h46.49.027,FaceAttractiveness,2022.2.5,145.7441258163273,
treatment,0% Never,100% Always,images\FOREHEAD_CFD_LM_203_026_N.png,0,0,0,0,0,19,19,14,,,,,,,,,,,,2023-04-07_19h46.49.027,FaceAttractiveness,2022.2.5,145.7441258163273,
treatment,0% Never,100% Always,images\ NASALTIP_CFD_AF_245_143_N.png,0,0,0,0,0,20,20,63,,,,,,,,,,,,2023-04-07_19h46.49.027,FaceAttractiveness,2022.2.5,145.7441258163273,
treatment,0% Never,100% Always,"images\ NASALTIP_CFD_WF_002_004_N.png
",0,0,0,0,0,21,21,72,,,,,,,,,,,,2023-04-07_19h46.49.027,FaceAttractiveness,2022.2.5,145.7441258163273,
treatment,0% Never,100% Always,images\ LCHEEK_CFD_LM_203_026_N.png,0,0,0,0,0,22,22,33,,,,,,,,,,,,2023-04-07_19h46.49.027,FaceAttractiveness,2022.2.5,145.7441258163273,
treatment,0% Never,100% Always,images\ LCHEEK_CFD_BM_213_134_N.png,0,0,0,0,0,23,23,29,,,,,,,,,,,,2023-04-07_19h46.49.027,FaceAttractiveness,2022.2.5,145.7441258163273,
treatment,0% Never,100% Always,images\ LCHEEK_CFD_BF_224_002_N.png,0,0,0,0,0,24,24,28,,,,,,,,,,,,2023-04-07_19h46.49.027,FaceAttractiveness,2022.2.5,145.7441258163273,
treatment,0% Never,100% Always,images\FOREHEAD_CFD_BF_214_308_N.png,0,0,0,0,0,25,25,8,,,,,,,,,,,,2023-04-07_19h46.49.027,FaceAttractiveness,2022.2.5,145.7441258163273,
treatment,0% Never,100% Always,images\ NASALTIP_CFD_WM_212_097_N.png,0,0,0,0,0,26,26,75,,,,,,,,,,,,2023-04-07_19h46.49.027,FaceAttractiveness,2022.2.5,145.7441258163273,
treatment,0% Never,100% Always,images\ NASALTIP_035_M_F_N_A.png,0,0,0,0,0,27,27,58,,,,,,,,,,,,2023-04-07_19h46.49.027,FaceAttractiveness,2022.2.5,145.7441258163273,
treatment,0% Never,100% Always,images\FOREHEAD_CFD_AF_237_223_N.png,0,0,0,0,0,28,28,5,,,,,,,,,,,,2023-04-07_19h46.49.027,FaceAttractiveness,2022.2.5,145.7441258163273,
treatment,0% Never,100% Always,"images\ RCHEEK_CFD_AM_233_236_N.png
",0,0,0,0,0,29,29,83,,,,,,,,,,,,2023-04-07_19h46.49.027,FaceAttractiveness,2022.2.5,145.7441258163273,
treatment,0% Never,100% Always,images\ LCHEEK_CFD_BF_214_308_N.png,0,0,0,0,0,30,30,27,,,,,,,,,,,,2023-04-07_19h46.49.027,FaceAttractiveness,2022.2.5,145.7441258163273,
treatment,0% Never,100% Always,images\ NASALTIP_006_M_F_N_A.png,0,0,0,0,0,31,31,57,,,,,,,,,,,,2023-04-07_19h46.49.027,FaceAttractiveness,2022.2.5,145.7441258163273,
treatment,0% Never,100% Always,images\ LCHEEK_CFD_AF_245_143_N.png,0,0,0,0,0,32,32,25,,,,,,,,,,,,2023-04-07_19h46.49.027,FaceAttractiveness,2022.2.5,145.7441258163273,
treatment,0% Never,100% Always,images\FOREHEAD_CFD_LM_201_057_N.png,0,0,0,0,0,33,33,13,,,,,,,,,,,,2023-04-07_19h46.49.027,FaceAttractiveness,2022.2.5,145.7441258163273,
treatment,0% Never,100% Always,images\ NASALTIP_CFD_AF_231_357_N.png,0,0,0,0,0,34,34,61,,,,,,,,,,,,2023-04-07_19h46.49.027,FaceAttractiveness,2022.2.5,145.7441258163273,
treatment,0% Never,100% Always,images\ NASALTIP_CFD_BF_214_308_N.png,0,0,0,0,0,35,35,65,,,,,,,,,,,,2023-04-07_19h46.49.027,FaceAttractiveness,2022.2.5,145.7441258163273,
treatment,0% Never,100% Always,images\ RCHEEK_CFD_LF_224_176_N.png,0,0,0,0,0,36,36,88,,,,,,,,,,,,2023-04-07_19h46.49.027,FaceAttractiveness,2022.2.5,145.7441258163273,
treatment,0% Never,100% Always,images\FOREHEAD_CFD_BM_213_134_N.png,0,0,0,0,0,37,37,10,,,,,,,,,,,,2023-04-07_19h46.49.027,FaceAttractiveness,2022.2.5,145.7441258163273,
treatment,0% Never,100% Always,images\ LIP_CFD_BF_214_308_N.png,0,0,0,0,0,38,38,46,,,,,,,,,,,,2023-04-07_19h46.49.027,FaceAttractiveness,2022.2.5,145.7441258163273,
treatment,0% Never,100% Always,images\ LIP_CFD_AF_231_357_N.png,0,0,0,0,0,39,39,42,,,,,,,,,,,,2023-04-07_19h46.49.027,FaceAttractiveness,2022.2.5,145.7441258163273,
treatment,0% Never,100% Always,images\ LIP_CFD_AF_245_143_N.png,0,0,0,0,0,40,40,44,,,,,,,,,,,,2023-04-07_19h46.49.027,FaceAttractiveness,2022.2.5,145.7441258163273,
treatment,0% Never,100% Always,images\FOREHEAD_035_M_F_N_A.png,0,0,0,0,0,41,41,1,,,,,,,,,,,,2023-04-07_19h46.49.027,FaceAttractiveness,2022.2.5,145.7441258163273,
treatment,0% Never,100% Always,images\ RCHEEK_CFD_BF_224_002_N.png,0,0,0,0,0,42,42,85,,,,,,,,,,,,2023-04-07_19h46.49.027,FaceAttractiveness,2022.2.5,145.7441258163273,
treatment,0% Never,100% Always,images\ LCHEEK_CFD_WM_212_097_N.png,0,0,0,0,0,43,43,37,,,,,,,,,,,,2023-04-07_19h46.49.027,FaceAttractiveness,2022.2.5,145.7441258163273,
treatment,0% Never,100% Always,images\FOREHEAD_CFD_BF_224_002_N.png,0,0,0,0,0,44,44,9,,,,,,,,,,,,2023-04-07_19h46.49.027,FaceAttractiveness,2022.2.5,145.7441258163273,
treatment,0% Never,100% Always,"images\ LCHEEK_136_M_M_N_A.png
",0,0,0,0,0,45,45,22,,,,,,,,,,,,2023-04-07_19h46.49.027,FaceAttractiveness,2022.2.5,145.7441258163273,
treatment,0% Never,100% Always,images\ RCHEEK_CFD_AF_231_357_N.png,0,0,0,0,0,46,46,80,,,,,,,,,,,,2023-04-07_19h46.49.027,FaceAttractiveness,2022.2.5,145.7441258163273,
treatment,0% Never,100% Always,images\ NASALTIP_CFD_WF_250_167_N.png,0,0,0,0,0,47,47,74,,,,,,,,,,,,2023-04-07_19h46.49.027,FaceAttractiveness,2022.2.5,145.7441258163273,
treatment,0% Never,100% Always,images\ NASALTIP_CFD_AF_237_223_N.png,0,0,0,0,0,48,48,62,,,,,,,,,,,,2023-04-07_19h46.49.027,FaceAttractiveness,2022.2.5,145.7441258163273,
treatment,0% Never,100% Always,images\ LIP_CFD_LM_201_057_N.png,0,0,0,0,0,49,49,51,,,,,,,,,,,,2023-04-07_19h46.49.027,FaceAttractiveness,2022.2.5,145.7441258163273,
treatment,0% Never,100% Always,images\FOREHEAD_CFD_AM_233_236_N.png,0,0,0,0,0,50,50,7,,,,,,,,,,,,2023-04-07_19h46.49.027,FaceAttractiveness,2022.2.5,145.7441258163273,
treatment,0% Never,100% Always,"images\ LCHEEK_CFD_WF_002_004_N.png
",0,0,0,0,0,51,51,34,,,,,,,,,,,,2023-04-07_19h46.49.027,FaceAttractiveness,2022.2.5,145.7441258163273,
treatment,0% Never,100% Always,images\FOREHEAD_CFD_AF_231_357_N.png,0,0,0,0,0,52,52,4,,,,,,,,,,,,2023-04-07_19h46.49.027,FaceAttractiveness,2022.2.5,145.7441258163273,
treatment,0% Never,100% Always,images\ LIP_CFD_BM_213_134_N.png,0,0,0,0,0,53,53,48,,,,,,,,,,,,2023-04-07_19h46.49.027,FaceAttractiveness,2022.2.5,145.7441258163273,
treatment,0% Never,100% Always,images\ RCHEEK_CFD_AF_237_223_N.png,0,0,0,0,0,54,54,81,,,,,,,,,,,,2023-04-07_19h46.49.027,FaceAttractiveness,2022.2.5,145.7441258163273,
treatment,0% Never,100% Always,"images\ RCHEEK_CFD_BM_234_172_N.png
",0,0,0,0,0,55,55,87,,,,,,,,,,,,2023-04-07_19h46.49.027,FaceAttractiveness,2022.2.5,145.7441258163273,
treatment,0% Never,100% Always,"images\ LIP_CFD_AM_233_236_N.png
",0,0,0,0,0,56,56,45,,,,,,,,,,,,2023-04-07_19h46.49.027,FaceAttractiveness,2022.2.5,145.7441258163273,
treatment,0% Never,100% Always,"images\ LCHEEK_CFD_BM_234_172_N.png
",0,0,0,0,0,57,57,30,,,,,,,,,,,,2023-04-07_19h46.49.027,FaceAttractiveness,2022.2.5,145.7441258163273,
treatment,0% Never,100% Always,images\ LIP_035_M_F_N_A.png,0,0,0,0,0,58,58,39,,,,,,,,,,,,2023-04-07_19h46.49.027,FaceAttractiveness,2022.2.5,145.7441258163273,
treatment,0% Never,100% Always,images\ RCHEEK_006_M_F_N_A.png,0,0,0,0,0,59,59,76,,,,,,,,,,,,2023-04-07_19h46.49.027,FaceAttractiveness,2022.2.5,145.7441258163273,
treatment,0% Never,100% Always,"images\ LIP_136_M_M_N_A.png
",0,0,0,0,0,60,60,41,,,,,,,,,,,,2023-04-07_19h46.49.027,FaceAttractiveness,2022.2.5,145.7441258163273,
treatment,0% Never,100% Always,images\ RCHEEK_CFD_LM_201_057_N.png,0,0,0,0,0,61,61,89,,,,,,,,,,,,2023-04-07_19h46.49.027,FaceAttractiveness,2022.2.5,145.7441258163273,
treatment,0% Never,100% Always,"images\ RCHEEK_136_M_M_N_A.png
",0,0,0,0,0,62,62,79,,,,,,,,,,,,2023-04-07_19h46.49.027,FaceAttractiveness,2022.2.5,145.7441258163273,
treatment,0% Never,100% Always,images\ NASALTIP_CFD_LM_201_057_N.png,0,0,0,0,0,63,63,70,,,,,,,,,,,,2023-04-07_19h46.49.027,FaceAttractiveness,2022.2.5,145.7441258163273,
treatment,0% Never,100% Always,images\ LIP_087_M_M_N_A.png,0,0,0,0,0,64,64,40,,,,,,,,,,,,2023-04-07_19h46.49.027,FaceAttractiveness,2022.2.5,145.7441258163273,
treatment,0% Never,100% Always,images\ RCHEEK_035_M_F_N_A.png,0,0,0,0,0,65,65,77,,,,,,,,,,,,2023-04-07_19h46.49.027,FaceAttractiveness,2022.2.5,145.7441258163273,
treatment,0% Never,100% Always,images\FOREHEAD_CFD_WF_200_099_N.png,0,0,0,0,0,66,66,16,,,,,,,,,,,,2023-04-07_19h46.49.027,FaceAttractiveness,2022.2.5,145.7441258163273,
treatment,0% Never,100% Always,images\ NASALTIP_CFD_WF_200_099_N.png,0,0,0,0,0,67,67,73,,,,,,,,,,,,2023-04-07_19h46.49.027,FaceAttractiveness,2022.2.5,145.7441258163273,
treatment,0% Never,100% Always,images\ NASALTIP_CFD_BF_224_002_N.png,0,0,0,0,0,68,68,66,,,,,,,,,,,,2023-04-07_19h46.49.027,FaceAttractiveness,2022.2.5,145.7441258163273,
treatment,0% Never,100% Always,images\ NASALTIP_CFD_BM_213_134_N.png,0,0,0,0,0,69,69,67,,,,,,,,,,,,2023-04-07_19h46.49.027,FaceAttractiveness,2022.2.5,145.7441258163273,
treatment,0% Never,100% Always,"images\ NASALTIP_136_M_M_N_A.png
",0,0,0,0,0,70,70,60,,,,,,,,,,,,2023-04-07_19h46.49.027,FaceAttractiveness,2022.2.5,145.7441258163273,
treatment,0% Never,100% Always,images\FOREHEAD_CFD_BM_234_172_N.png,0,0,0,0,0,71,71,11,,,,,,,,,,,,2023-04-07_19h46.49.027,FaceAttractiveness,2022.2.5,145.7441258163273,
treatment,0% Never,100% Always,images\FOREHEAD_CFD_WF_250_167_N.png,0,0,0,0,0,72,72,17,,,,,,,,,,,,2023-04-07_19h46.49.027,FaceAttractiveness,2022.2.5,145.7441258163273,
treatment,0% Never,100% Always,images\ LIP_CFD_WF_250_167_N.png,0,0,0,0,0,73,73,55,,,,,,,,,,,,2023-04-07_19h46.49.027,FaceAttractiveness,2022.2.5,145.7441258163273,
treatment,0% Never,100% Always,"images\ LIP_CFD_WF_002_004_N.png
",0,0,0,0,0,74,74,53,,,,,,,,,,,,2023-04-07_19h46.49.027,FaceAttractiveness,2022.2.5,145.7441258163273,
treatment,0% Never,100% Always,"images\ RCHEEK_CFD_WF_002_004_N.png
",0,0,0,0,0,75,75,91,,,,,,,,,,,,2023-04-07_19h46.49.027,FaceAttractiveness,2022.2.5,145.7441258163273,
treatment,0% Never,100% Always,"images\ NASALTIP_CFD_AM_233_236_N.png
",0,0,0,0,0,76,76,64,,,,,,,,,,,,2023-04-07_19h46.49.027,FaceAttractiveness,2022.2.5,145.7441258163273,
treatment,0% Never,100% Always,images\ LIP_CFD_BF_224_002_N.png,0,0,0,0,0,77,77,47,,,,,,,,,,,,2023-04-07_19h46.49.027,FaceAttractiveness,2022.2.5,145.7441258163273,
treatment,0% Never,100% Always,images\FOREHEAD_CFD_WM_212_097_N.png,0,0,0,0,0,78,78,18,,,,,,,,,,,,2023-04-07_19h46.49.027,FaceAttractiveness,2022.2.5,145.7441258163273,
treatment,0% Never,100% Always,images\FOREHEAD_136_M_M_N_A.png,0,0,0,0,0,79,79,3,,,,,,,,,,,,2023-04-07_19h46.49.027,FaceAttractiveness,2022.2.5,145.7441258163273,
treatment,0% Never,100% Always,images\FOREHEAD_CFD_AF_245_143_N.png,0,0,0,0,0,80,80,6,,,,,,,,,,,,2023-04-07_19h46.49.027,FaceAttractiveness,2022.2.5,145.7441258163273,
treatment,0% Never,100% Always,images\ LCHEEK_CFD_LF_224_176_N.png,0,0,0,0,0,81,81,31,,,,,,,,,,,,2023-04-07_19h46.49.027,FaceAttractiveness,2022.2.5,145.7441258163273,
treatment,0% Never,100% Always,images\ LIP_CFD_LF_224_176_N.png,0,0,0,0,0,82,82,50,,,,,,,,,,,,2023-04-07_19h46.49.027,FaceAttractiveness,2022.2.5,145.7441258163273,
treatment,0% Never,100% Always,images\ NASALTIP_CFD_LF_224_176_N.png,0,0,0,0,0,83,83,69,,,,,,,,,,,,2023-04-07_19h46.49.027,FaceAttractiveness,2022.2.5,145.7441258163273,
treatment,0% Never,100% Always,images\ RCHEEK_CFD_BF_214_308_N.png,0,0,0,0,0,84,84,84,,,,,,,,,,,,2023-04-07_19h46.49.027,FaceAttractiveness,2022.2.5,145.7441258163273,
treatment,0% Never,100% Always,images\ LIP_CFD_AF_237_223_N.png,0,0,0,0,0,85,85,43,,,,,,,,,,,,2023-04-07_19h46.49.027,FaceAttractiveness,2022.2.5,145.7441258163273,
treatment,0% Never,100% Always,"images\ NASALTIP_CFD_BM_234_172_N.png
",0,0,0,0,0,86,86,68,,,,,,,,,,,,2023-04-07_19h46.49.027,FaceAttractiveness,2022.2.5,145.7441258163273,
treatment,0% Never,100% Always,images\ NASALTIP_087_M_M_N_A.png,0,0,0,0,0,87,87,59,,,,,,,,,,,,2023-04-07_19h46.49.027,FaceAttractiveness,2022.2.5,145.7441258163273,
treatment,0% Never,100% Always,"images\ LIP_CFD_BM_234_172_N.png
",0,0,0,0,0,88,88,49,,,,,,,,,,,,2023-04-07_19h46.49.027,FaceAttractiveness,2022.2.5,145.7441258163273,
treatment,0% Never,100% Always,images\ LCHEEK_087_M_M_N_A.png,0,0,0,0,0,89,89,21,,,,,,,,,,,,2023-04-07_19h46.49.027,FaceAttractiveness,2022.2.5,145.7441258163273,
treatment,0% Never,100% Always,images\ RCHEEK_087_M_M_N_A.png,0,0,0,0,0,90,90,78,,,,,,,,,,,,2023-04-07_19h46.49.027,FaceAttractiveness,2022.2.5,145.7441258163273,
treatment,0% Never,100% Always,images\ LCHEEK_CFD_WF_200_099_N.png,0,0,0,0,0,91,91,35,,,,,,,,,,,,2023-04-07_19h46.49.027,FaceAttractiveness,2022.2.5,145.7441258163273,
treatment,0% Never,100% Always,images\ RCHEEK_CFD_BM_213_134_N.png,0,0,0,0,0,92,92,86,,,,,,,,,,,,2023-04-07_19h46.49.027,FaceAttractiveness,2022.2.5,145.7441258163273,
treatment,0% Never,100% Always,images\FOREHEAD_087_M_M_N_A.png,0,0,0,0,0,93,93,2,,,,,,,,,,,,2023-04-07_19h46.49.027,FaceAttractiveness,2022.2.5,145.7441258163273,
treatment,0% Never,100% Always,images\ NASALTIP_CFD_LM_203_026_N.png,0,0,0,0,0,94,94,71,,,,,,,,,,,,2023-04-07_19h46.49.027,FaceAttractiveness,2022.2.5,145.7441258163273,
treatment,0% Never,100% Always,images\FOREHEAD_CFD_AF_231_357_N.png,0,0,0,0,1,0,95,4,,,,,,,,,,,,2023-04-07_19h46.49.027,FaceAttractiveness,2022.2.5,145.7441258163273,
treatment,0% Never,100% Always,images\ LIP_CFD_WF_250_167_N.png,0,0,0,0,1,1,96,55,,,,,,,,,,,,2023-04-07_19h46.49.027,FaceAttractiveness,2022.2.5,145.7441258163273,
treatment,0% Never,100% Always,images\FOREHEAD_CFD_AF_237_223_N.png,0,0,0,0,1,2,97,5,,,,,,,,,,,,2023-04-07_19h46.49.027,FaceAttractiveness,2022.2.5,145.7441258163273,
treatment,0% Never,100% Always,"images\ NASALTIP_136_M_M_N_A.png
",0,0,0,0,1,3,98,60,,,,,,,,,,,,2023-04-07_19h46.49.027,FaceAttractiveness,2022.2.5,145.7441258163273,
treatment,0% Never,100% Always,images\ NASALTIP_CFD_LM_201_057_N.png,0,0,0,0,1,4,99,70,,,,,,,,,,,,2023-04-07_19h46.49.027,FaceAttractiveness,2022.2.5,145.7441258163273,
treatment,0% Never,100% Always,images\ NASALTIP_CFD_BF_224_002_N.png,0,0,0,0,1,5,100,66,,,,,,,,,,,,2023-04-07_19h46.49.027,FaceAttractiveness,2022.2.5,145.7441258163273,
treatment,0% Never,100% Always,images\ RCHEEK_CFD_AF_231_357_N.png,0,0,0,0,1,6,101,80,,,,,,,,,,,,2023-04-07_19h46.49.027,FaceAttractiveness,2022.2.5,145.7441258163273,
treatment,0% Never,100% Always,images\ NASALTIP_035_M_F_N_A.png,0,0,0,0,1,7,102,58,,,,,,,,,,,,2023-04-07_19h46.49.027,FaceAttractiveness,2022.2.5,145.7441258163273,
treatment,0% Never,100% Always,images\ RCHEEK_CFD_WF_200_099_N.png,0,0,0,0,1,8,103,92,,,,,,,,,,,,2023-04-07_19h46.49.027,FaceAttractiveness,2022.2.5,145.7441258163273,
treatment,0% Never,100% Always,images\ RCHEEK_CFD_WM_212_097_N.png,0,0,0,0,1,9,104,94,,,,,,,,,,,,2023-04-07_19h46.49.027,FaceAttractiveness,2022.2.5,145.7441258163273,
treatment,0% Never,100% Always,"images\ LCHEEK_136_M_M_N_A.png
",0,0,0,0,1,10,105,22,,,,,,,,,,,,2023-04-07_19h46.49.027,FaceAttractiveness,2022.2.5,145.7441258163273,
treatment,0% Never,100% Always,images\FOREHEAD_CFD_WF_250_167_N.png,0,0,0,0,1,11,106,17,,,,,,,,,,,,2023-04-07_19h46.49.027,FaceAttractiveness,2022.2.5,145.7441258163273,
treatment,0% Never,100% Always,images\ LIP_CFD_WM_212_097_N.png,0,0,0,0,1,12,107,56,,,,,,,,,,,,2023-04-07_19h46.49.027,FaceAttractiveness,2022.2.5,145.7441258163273,
treatment,0% Never,100% Always,images\ LCHEEK_035_M_F_N_A.png,0,0,0,0,1,13,108,20,,,,,,,,,,,,2023-04-07_19h46.49.027,FaceAttractiveness,2022.2.5,145.7441258163273,
treatment,0% Never,100% Always,images\ LIP_CFD_AF_237_223_N.png,0,0,0,0,1,14,109,43,,,,,,,,,,,,2023-04-07_19h46.49.027,FaceAttractiveness,2022.2.5,145.7441258163273,
treatment,0% Never,100% Always,images\FOREHEAD_CFD_BF_224_002_N.png,0,0,0,0,1,15,110,9,,,,,,,,,,,,2023-04-07_19h46.49.027,FaceAttractiveness,2022.2.5,145.7441258163273,
treatment,0% Never,100% Always,images\ LIP_CFD_BF_224_002_N.png,0,0,0,0,1,16,111,47,,,,,,,,,,,,2023-04-07_19h46.49.027,FaceAttractiveness,2022.2.5,145.7441258163273,
treatment,0% Never,100% Always,"images\ NASALTIP_CFD_WF_002_004_N.png
",0,0,0,0,1,17,112,72,,,,,,,,,,,,2023-04-07_19h46.49.027,FaceAttractiveness,2022.2.5,145.7441258163273,
treatment,0% Never,100% Always,images\ LCHEEK_CFD_LM_203_026_N.png,0,0,0,0,1,18,113,33,,,,,,,,,,,,2023-04-07_19h46.49.027,FaceAttractiveness,2022.2.5,145.7441258163273,
treatment,0% Never,100% Always,images\ LCHEEK_CFD_LM_201_057_N.png,0,0,0,0,1,19,114,32,,,,,,,,,,,,2023-04-07_19h46.49.027,FaceAttractiveness,2022.2.5,145.7441258163273,
treatment,0% Never,100% Always,images\ LCHEEK_CFD_BF_224_002_N.png,0,0,0,0,1,20,115,28,,,,,,,,,,,,2023-04-07_19h46.49.027,FaceAttractiveness,2022.2.5,145.7441258163273,
treatment,0% Never,100% Always,images\ RCHEEK_035_M_F_N_A.png,0,0,0,0,1,21,116,77,,,,,,,,,,,,2023-04-07_19h46.49.027,FaceAttractiveness,2022.2.5,145.7441258163273,
treatment,0% Never,100% Always,images\ LCHEEK_CFD_AF_237_223_N.png,0,0,0,0,1,22,117,24,,,,,,,,,,,,2023-04-07_19h46.49.027,FaceAttractiveness,2022.2.5,145.7441258163273,
treatment,0% Never,100% Always,images\ LIP_006_M_F_N_A.png,0,0,0,0,1,23,118,38,,,,,,,,,,,,2023-04-07_19h46.49.027,FaceAttractiveness,2022.2.5,145.7441258163273,
treatment,0% Never,100% Always,images\ LIP_CFD_LM_201_057_N.png,0,0,0,0,1,24,119,51,,,,,,,,,,,,2023-04-07_19h46.49.027,FaceAttractiveness,2022.2.5,145.7441258163273,
treatment,0% Never,100% Always,images\ RCHEEK_CFD_LF_224_176_N.png,0,0,0,0,1,25,120,88,,,,,,,,,,,,2023-04-07_19h46.49.027,FaceAttractiveness,2022.2.5,145.7441258163273,
treatment,0% Never,100% Always,images\ LCHEEK_006_M_F_N_A.png,0,0,0,0,1,26,121,19,,,,,,,,,,,,2023-04-07_19h46.49.027,FaceAttractiveness,2022.2.5,145.7441258163273,
treatment,0% Never,100% Always,"images\ RCHEEK_CFD_WF_002_004_N.png
",0,0,0,0,1,27,122,91,,,,,,,,,,,,2023-04-07_19h46.49.027,FaceAttractiveness,2022.2.5,145.7441258163273,
treatment,0% Never,100% Always,images\FOREHEAD_CFD_LM_203_026_N.png,0,0,0,0,1,28,123,14,,,,,,,,,,,,2023-04-07_19h46.49.027,FaceAttractiveness,2022.2.5,145.7441258163273,
treatment,0% Never,100% Always,images\ LIP_087_M_M_N_A.png,0,0,0,0,1,29,124,40,,,,,,,,,,,,2023-04-07_19h46.49.027,FaceAttractiveness,2022.2.5,145.7441258163273,
treatment,0% Never,100% Always,images\FOREHEAD_006_M_F_N_A.png,0,0,0,0,1,30,125,0,,,,,,,,,,,,2023-04-07_19h46.49.027,FaceAttractiveness,2022.2.5,145.7441258163273,
treatment,0% Never,100% Always,images\ NASALTIP_CFD_BM_213_134_N.png,0,0,0,0,1,31,126,67,,,,,,,,,,,,2023-04-07_19h46.49.027,FaceAttractiveness,2022.2.5,145.7441258163273,
treatment,0% Never,100% Always,images\ LIP_035_M_F_N_A.png,0,0,0,0,1,32,127,39,,,,,,,,,,,,2023-04-07_19h46.49.027,FaceAttractiveness,2022.2.5,145.7441258163273,
treatment,0% Never,100% Always,images\ NASALTIP_CFD_AF_245_143_N.png,0,0,0,0,1,33,128,63,,,,,,,,,,,,2023-04-07_19h46.49.027,FaceAttractiveness,2022.2.5,145.7441258163273,
treatment,0% Never,100% Always,images\ NASALTIP_CFD_WF_200_099_N.png,0,0,0,0,1,34,129,73,,,,,,,,,,,,2023-04-07_19h46.49.027,FaceAttractiveness,2022.2.5,145.7441258163273,
treatment,0% Never,100% Always,images\ RCHEEK_006_M_F_N_A.png,0,0,0,0,1,35,130,76,,,,,,,,,,,,2023-04-07_19h46.49.027,FaceAttractiveness,2022.2.5,145.7441258163273,
treatment,0% Never,100% Always,images\ LCHEEK_CFD_WF_250_167_N.png,0,0,0,0,1,36,131,36,,,,,,,,,,,,2023-04-07_19h46.49.027,FaceAttractiveness,2022.2.5,145.7441258163273,
treatment,0% Never,100% Always,images\ LCHEEK_CFD_LF_224_176_N.png,0,0,0,0,1,37,132,31,,,,,,,,,,,,2023-04-07_19h46.49.027,FaceAttractiveness,2022.2.5,145.7441258163273,
treatment,0% Never,100% Always,"images\ LIP_CFD_BM_234_172_N.png
",0,0,0,0,1,38,133,49,,,,,,,,,,,,2023-04-07_19h46.49.027,FaceAttractiveness,2022.2.5,145.7441258163273,
treatment,0% Never,100% Always,"images\ LCHEEK_CFD_AM_233_236_N.png
",0,0,0,0,1,39,134,26,,,,,,,,,,,,2023-04-07_19h46.49.027,FaceAttractiveness,2022.2.5,145.7441258163273,
treatment,0% Never,100% Always,images\ NASALTIP_CFD_LF_224_176_N.png,0,0,0,0,1,40,135,69,,,,,,,,,,,,2023-04-07_19h46.49.027,FaceAttractiveness,2022.2.5,145.7441258163273,
treatment,0% Never,100% Always,images\ LCHEEK_087_M_M_N_A.png,0,0,0,0,1,41,136,21,,,,,,,,,,,,2023-04-07_19h46.49.027,FaceAttractiveness,2022.2.5,145.7441258163273,
treatment,0% Never,100% Always,images\ LIP_CFD_LF_224_176_N.png,0,0,0,0,1,42,137,50,,,,,,,,,,,,2023-04-07_19h46.49.027,FaceAttractiveness,2022.2.5,145.7441258163273,
treatment,0% Never,100% Always,images\ LIP_CFD_WF_200_099_N.png,0,0,0,0,1,43,138,54,,,,,,,,,,,,2023-04-07_19h46.49.027,FaceAttractiveness,2022.2.5,145.7441258163273,
treatment,0% Never,100% Always,images\ LCHEEK_CFD_AF_231_357_N.png,0,0,0,0,1,44,139,23,,,,,,,,,,,,2023-04-07_19h46.49.027,FaceAttractiveness,2022.2.5,145.7441258163273,
treatment,0% Never,100% Always,images\FOREHEAD_CFD_WF_200_099_N.png,0,0,0,0,1,45,140,16,,,,,,,,,,,,2023-04-07_19h46.49.027,FaceAttractiveness,2022.2.5,145.7441258163273,
treatment,0% Never,100% Always,"images\ LIP_136_M_M_N_A.png
",0,0,0,0,1,46,141,41,,,,,,,,,,,,2023-04-07_19h46.49.027,FaceAttractiveness,2022.2.5,145.7441258163273,
treatment,0% Never,100% Always,"images\ LIP_CFD_AM_233_236_N.png
",0,0,0,0,1,47,142,45,,,,,,,,,,,,2023-04-07_19h46.49.027,FaceAttractiveness,2022.2.5,145.7441258163273,
treatment,0% Never,100% Always,images\ LCHEEK_CFD_WF_200_099_N.png,0,0,0,0,1,48,143,35,,,,,,,,,,,,2023-04-07_19h46.49.027,FaceAttractiveness,2022.2.5,145.7441258163273,
treatment,0% Never,100% Always,images\ LCHEEK_CFD_BM_213_134_N.png,0,0,0,0,1,49,144,29,,,,,,,,,,,,2023-04-07_19h46.49.027,FaceAttractiveness,2022.2.5,145.7441258163273,
treatment,0% Never,100% Always,images\FOREHEAD_CFD_AM_233_236_N.png,0,0,0,0,1,50,145,7,,,,,,,,,,,,2023-04-07_19h46.49.027,FaceAttractiveness,2022.2.5,145.7441258163273,
treatment,0% Never,100% Always,images\FOREHEAD_CFD_BF_214_308_N.png,0,0,0,0,1,51,146,8,,,,,,,,,,,,2023-04-07_19h46.49.027,FaceAttractiveness,2022.2.5,145.7441258163273,
treatment,0% Never,100% Always,images\ RCHEEK_CFD_BF_214_308_N.png,0,0,0,0,1,52,147,84,,,,,,,,,,,,2023-04-07_19h46.49.027,FaceAttractiveness,2022.2.5,145.7441258163273,
treatment,0% Never,100% Always,"images\ LCHEEK_CFD_WF_002_004_N.png
",0,0,0,0,1,53,148,34,,,,,,,,,,,,2023-04-07_19h46.49.027,FaceAttractiveness,2022.2.5,145.7441258163273,
treatment,0% Never,100% Always,images\FOREHEAD_CFD_BM_213_134_N.png,0,0,0,0,1,54,149,10,,,,,,,,,,,,2023-04-07_19h46.49.027,FaceAttractiveness,2022.2.5,145.7441258163273,
treatment,0% Never,100% Always,images\ LCHEEK_CFD_AF_245_143_N.png,0,0,0,0,1,55,150,25,,,,,,,,,,,,2023-04-07_19h46.49.027,FaceAttractiveness,2022.2.5,145.7441258163273,
treatment,0% Never,100% Always,images\ NASALTIP_CFD_WM_212_097_N.png,0,0,0,0,1,56,151,75,,,,,,,,,,,,2023-04-07_19h46.49.027,FaceAttractiveness,2022.2.5,145.7441258163273,
treatment,0% Never,100% Always,"images\ RCHEEK_CFD_AM_233_236_N.png
",0,0,0,0,1,57,152,83,,,,,,,,,,,,2023-04-07_19h46.49.027,FaceAttractiveness,2022.2.5,145.7441258163273,
treatment,0% Never,100% Always,"images\ NASALTIP_CFD_AM_233_236_N.png
",0,0,0,0,1,58,153,64,,,,,,,,,,,,2023-04-07_19h46.49.027,FaceAttractiveness,2022.2.5,145.7441258163273,
treatment,0% Never,100% Always,images\ NASALTIP_CFD_WF_250_167_N.png,0,0,0,0,1,59,154,74,,,,,,,,,,,,2023-04-07_19h46.49.027,FaceAttractiveness,2022.2.5,145.7441258163273,
treatment,0% Never,100% Always,images\ NASALTIP_CFD_LM_203_026_N.png,0,0,0,0,1,60,155,71,,,,,,,,,,,,2023-04-07_19h46.49.027,FaceAttractiveness,2022.2.5,145.7441258163273,
treatment,0% Never,100% Always,images\ LIP_CFD_BM_213_134_N.png,0,0,0,0,1,61,156,48,,,,,,,,,,,,2023-04-07_19h46.49.027,FaceAttractiveness,2022.2.5,145.7441258163273,
treatment,0% Never,100% Always,images\ NASALTIP_006_M_F_N_A.png,0,0,0,0,1,62,157,57,,,,,,,,,,,,2023-04-07_19h46.49.027,FaceAttractiveness,2022.2.5,145.7441258163273,
treatment,0% Never,100% Always,images\ LIP_CFD_LM_203_026_N.png,0,0,0,0,1,63,158,52,,,,,,,,,,,,2023-04-07_19h46.49.027,FaceAttractiveness,2022.2.5,145.7441258163273,
treatment,0% Never,100% Always,images\FOREHEAD_136_M_M_N_A.png,0,0,0,0,1,64,159,3,,,,,,,,,,,,2023-04-07_19h46.49.027,FaceAttractiveness,2022.2.5,145.7441258163273,
treatment,0% Never,100% Always,images\ RCHEEK_CFD_WF_250_167_N.png,0,0,0,0,1,65,160,93,,,,,,,,,,,,2023-04-07_19h46.49.027,FaceAttractiveness,2022.2.5,145.7441258163273,
treatment,0% Never,100% Always,images\ RCHEEK_CFD_AF_237_223_N.png,0,0,0,0,1,66,161,81,,,,,,,,,,,,2023-04-07_19h46.49.027,FaceAttractiveness,2022.2.5,145.7441258163273,
treatment,0% Never,100% Always,images\ NASALTIP_CFD_BF_214_308_N.png,0,0,0,0,1,67,162,65,,,,,,,,,,,,2023-04-07_19h46.49.027,FaceAttractiveness,2022.2.5,145.7441258163273,
treatment,0% Never,100% Always,images\ NASALTIP_087_M_M_N_A.png,0,0,0,0,1,68,163,59,,,,,,,,,,,,2023-04-07_19h46.49.027,FaceAttractiveness,2022.2.5,145.7441258163273,
treatment,0% Never,100% Always,images\ LIP_CFD_AF_231_357_N.png,0,0,0,0,1,69,164,42,,,,,,,,,,,,2023-04-07_19h46.49.027,FaceAttractiveness,2022.2.5,145.7441258163273,
treatment,0% Never,100% Always,images\FOREHEAD_CFD_LM_201_057_N.png,0,0,0,0,1,70,165,13,,,,,,,,,,,,2023-04-07_19h46.49.027,FaceAttractiveness,2022.2.5,145.7441258163273,
treatment,0% Never,100% Always,images\FOREHEAD_CFD_AF_245_143_N.png,0,0,0,0,1,71,166,6,,,,,,,,,,,,2023-04-07_19h46.49.027,FaceAttractiveness,2022.2.5,145.7441258163273,
treatment,0% Never,100% Always,images\ LCHEEK_CFD_WM_212_097_N.png,0,0,0,0,1,72,167,37,,,,,,,,,,,,2023-04-07_19h46.49.027,FaceAttractiveness,2022.2.5,145.7441258163273,
treatment,0% Never,100% Always,images\ LIP_CFD_AF_245_143_N.png,0,0,0,0,1,73,168,44,,,,,,,,,,,,2023-04-07_19h46.49.027,FaceAttractiveness,2022.2.5,145.7441258163273,
treatment,0% Never,100% Always,images\FOREHEAD_CFD_BM_234_172_N.png,0,0,0,0,1,74,169,11,,,,,,,,,,,,2023-04-07_19h46.49.027,FaceAttractiveness,2022.2.5,145.7441258163273,
treatment,0% Never,100% Always,"images\ LIP_CFD_WF_002_004_N.png
",0,0,0,0,1,75,170,53,,,,,,,,,,,,2023-04-07_19h46.49.027,FaceAttractiveness,2022.2.5,145.7441258163273,
treatment,0% Never,100% Always,images\FOREHEAD_035_M_F_N_A.png,0,0,0,0,1,76,171,1,,,,,,,,,,,,2023-04-07_19h46.49.027,FaceAttractiveness,2022.2.5,145.7441258163273,
treatment,0% Never,100% Always,images\ RCHEEK_CFD_AF_245_143_N.png,0,0,0,0,1,77,172,82,,,,,,,,,,,,2023-04-07_19h46.49.027,FaceAttractiveness,2022.2.5,145.7441258163273,
treatment,0% Never,100% Always,images\ RCHEEK_CFD_BF_224_002_N.png,0,0,0,0,1,78,173,85,,,,,,,,,,,,2023-04-07_19h46.49.027,FaceAttractiveness,2022.2.5,145.7441258163273,
treatment,0% Never,100% Always,images\FOREHEAD_CFD_WM_212_097_N.png,0,0,0,0,1,79,174,18,,,,,,,,,,,,2023-04-07_19h46.49.027,FaceAttractiveness,2022.2.5,145.7441258163273,
treatment,0% Never,100% Always,images\FOREHEAD_CFD_LF_224_176_N.png,0,0,0,0,1,80,175,12,,,,,,,,,,,,2023-04-07_19h46.49.027,FaceAttractiveness,2022.2.5,145.7441258163273,
treatment,0% Never,100% Always,"images\ RCHEEK_CFD_BM_234_172_N.png
",0,0,0,0,1,81,176,87,,,,,,,,,,,,2023-04-07_19h46.49.027,FaceAttractiveness,2022.2.5,145.7441258163273,
treatment,0% Never,100% Always,"images\ LCHEEK_CFD_BM_234_172_N.png
",0,0,0,0,1,82,177,30,,,,,,,,,,,,2023-04-07_19h46.49.027,FaceAttractiveness,2022.2.5,145.7441258163273,
treatment,0% Never,100% Always,images\ NASALTIP_CFD_AF_231_357_N.png,0,0,0,0,1,83,178,61,,,,,,,,,,,,2023-04-07_19h46.49.027,FaceAttractiveness,2022.2.5,145.7441258163273,
treatment,0% Never,100% Always,images\ RCHEEK_087_M_M_N_A.png,0,0,0,0,1,84,179,78,,,,,,,,,,,,2023-04-07_19h46.49.027,FaceAttractiveness,2022.2.5,145.7441258163273,
treatment,0% Never,100% Always,images\ RCHEEK_CFD_LM_201_057_N.png,0,0,0,0,1,85,180,89,,,,,,,,,,,,2023-04-07_19h46.49.027,FaceAttractiveness,2022.2.5,145.7441258163273,
treatment,0% Never,100% Always,"images\ NASALTIP_CFD_BM_234_172_N.png
",0,0,0,0,1,86,181,68,,,,,,,,,,,,2023-04-07_19h46.49.027,FaceAttractiveness,2022.2.5,145.7441258163273,
treatment,0% Never,100% Always,images\ LIP_CFD_BF_214_308_N.png,0,0,0,0,1,87,182,46,,,,,,,,,,,,2023-04-07_19h46.49.027,FaceAttractiveness,2022.2.5,145.7441258163273,
treatment,0% Never,100% Always,"images\ RCHEEK_136_M_M_N_A.png
",0,0,0,0,1,88,183,79,,,,,,,,,,,,2023-04-07_19h46.49.027,FaceAttractiveness,2022.2.5,145.7441258163273,
treatment,0% Never,100% Always,images\ NASALTIP_CFD_AF_237_223_N.png,0,0,0,0,1,89,184,62,,,,,,,,,,,,2023-04-07_19h46.49.027,FaceAttractiveness,2022.2.5,145.7441258163273,
treatment,0% Never,100% Always,images\ LCHEEK_CFD_BF_214_308_N.png,0,0,0,0,1,90,185,27,,,,,,,,,,,,2023-04-07_19h46.49.027,FaceAttractiveness,2022.2.5,145.7441258163273,
treatment,0% Never,100% Always,images\ RCHEEK_CFD_LM_203_026_N.png,0,0,0,0,1,91,186,90,,,,,,,,,,,,2023-04-07_19h46.49.027,FaceAttractiveness,2022.2.5,145.7441258163273,
treatment,0% Never,100% Always,images\FOREHEAD_CFD_WF_002_004_N.png,0,0,0,0,1,92,187,15,,,,,,,,,,,,2023-04-07_19h46.49.027,FaceAttractiveness,2022.2.5,145.7441258163273,
treatment,0% Never,100% Always,images\ RCHEEK_CFD_BM_213_134_N.png,0,0,0,0,1,93,188,86,,,,,,,,,,,,2023-04-07_19h46.49.027,FaceAttractiveness,2022.2.5,145.7441258163273,
treatment,0% Never,100% Always,images\FOREHEAD_087_M_M_N_A.png,0,0,0,0,1,94,189,2,,,,,,,,,,,,2023-04-07_19h46.49.027,FaceAttractiveness,2022.2.5,145.7441258163273,
treatment,0% Never,100% Always,images\ LIP_CFD_BM_213_134_N.png,0,0,0,0,2,0,190,48,,,,,,,,,,,,2023-04-07_19h46.49.027,FaceAttractiveness,2022.2.5,145.7441258163273,
treatment,0% Never,100% Always,images\ LIP_CFD_LM_203_026_N.png,0,0,0,0,2,1,191,52,,,,,,,,,,,,2023-04-07_19h46.49.027,FaceAttractiveness,2022.2.5,145.7441258163273,
treatment,0% Never,100% Always,images\ LIP_CFD_BF_214_308_N.png,0,0,0,0,2,2,192,46,,,,,,,,,,,,2023-04-07_19h46.49.027,FaceAttractiveness,2022.2.5,145.7441258163273,
treatment,0% Never,100% Always,images\ RCHEEK_CFD_AF_231_357_N.png,0,0,0,0,2,3,193,80,,,,,,,,,,,,2023-04-07_19h46.49.027,FaceAttractiveness,2022.2.5,145.7441258163273,
treatment,0% Never,100% Always,images\ LCHEEK_CFD_BF_224_002_N.png,0,0,0,0,2,4,194,28,,,,,,,,,,,,2023-04-07_19h46.49.027,FaceAttractiveness,2022.2.5,145.7441258163273,
treatment,0% Never,100% Always,images\ LIP_CFD_WM_212_097_N.png,0,0,0,0,2,5,195,56,,,,,,,,,,,,2023-04-07_19h46.49.027,FaceAttractiveness,2022.2.5,145.7441258163273,
treatment,0% Never,100% Always,images\ NASALTIP_CFD_LM_203_026_N.png,0,0,0,0,2,6,196,71,,,,,,,,,,,,2023-04-07_19h46.49.027,FaceAttractiveness,2022.2.5,145.7441258163273,
treatment,0% Never,100% Always,images\ LIP_CFD_AF_245_143_N.png,0,0,0,0,2,7,197,44,,,,,,,,,,,,2023-04-07_19h46.49.027,FaceAttractiveness,2022.2.5,145.7441258163273,
treatment,0% Never,100% Always,"images\ NASALTIP_CFD_BM_234_172_N.png
",0,0,0,0,2,8,198,68,,,,,,,,,,,,2023-04-07_19h46.49.027,FaceAttractiveness,2022.2.5,145.7441258163273,
treatment,0% Never,100% Always,images\FOREHEAD_CFD_WF_200_099_N.png,0,0,0,0,2,9,199,16,,,,,,,,,,,,2023-04-07_19h46.49.027,FaceAttractiveness,2022.2.5,145.7441258163273,
treatment,0% Never,100% Always,images\ LIP_006_M_F_N_A.png,0,0,0,0,2,10,200,38,,,,,,,,,,,,2023-04-07_19h46.49.027,FaceAttractiveness,2022.2.5,145.7441258163273,
treatment,0% Never,100% Always,images\ LCHEEK_CFD_AF_231_357_N.png,0,0,0,0,2,11,201,23,,,,,,,,,,,,2023-04-07_19h46.49.027,FaceAttractiveness,2022.2.5,145.7441258163273,
treatment,0% Never,100% Always,images\FOREHEAD_006_M_F_N_A.png,0,0,0,0,2,12,202,0,,,,,,,,,,,,2023-04-07_19h46.49.027,FaceAttractiveness,2022.2.5,145.7441258163273,
treatment,0% Never,100% Always,images\FOREHEAD_CFD_WF_002_004_N.png,0,0,0,0,2,13,203,15,,,,,,,,,,,,2023-04-07_19h46.49.027,FaceAttractiveness,2022.2.5,145.7441258163273,
treatment,0% Never,100% Always,images\FOREHEAD_CFD_BM_213_134_N.png,0,0,0,0,2,14,204,10,,,,,,,,,,,,2023-04-07_19h46.49.027,FaceAttractiveness,2022.2.5,145.7441258163273,
treatment,0% Never,100% Always,images\ NASALTIP_CFD_LF_224_176_N.png,0,0,0,0,2,15,205,69,,,,,,,,,,,,2023-04-07_19h46.49.027,FaceAttractiveness,2022.2.5,145.7441258163273,
treatment,0% Never,100% Always,images\ RCHEEK_CFD_WF_200_099_N.png,0,0,0,0,2,16,206,92,,,,,,,,,,,,2023-04-07_19h46.49.027,FaceAttractiveness,2022.2.5,145.7441258163273,
treatment,0% Never,100% Always,"images\ LIP_CFD_AM_233_236_N.png
",0,0,0,0,2,17,207,45,,,,,,,,,,,,2023-04-07_19h46.49.027,FaceAttractiveness,2022.2.5,145.7441258163273,
treatment,0% Never,100% Always,"images\ RCHEEK_CFD_BM_234_172_N.png
",0,0,0,0,2,18,208,87,,,,,,,,,,,,2023-04-07_19h46.49.027,FaceAttractiveness,2022.2.5,145.7441258163273,
treatment,0% Never,100% Always,images\FOREHEAD_CFD_BM_234_172_N.png,0,0,0,0,2,19,209,11,,,,,,,,,,,,2023-04-07_19h46.49.027,FaceAttractiveness,2022.2.5,145.7441258163273,
treatment,0% Never,100% Always,images\FOREHEAD_CFD_BF_224_002_N.png,0,0,0,0,2,20,210,9,,,,,,,,,,,,2023-04-07_19h46.49.027,FaceAttractiveness,2022.2.5,145.7441258163273,
treatment,0% Never,100% Always,"images\ RCHEEK_136_M_M_N_A.png
",0,0,0,0,2,21,211,79,,,,,,,,,,,,2023-04-07_19h46.49.027,FaceAttractiveness,2022.2.5,145.7441258163273,
treatment,0% Never,100% Always,images\ LIP_087_M_M_N_A.png,0,0,0,0,2,22,212,40,,,,,,,,,,,,2023-04-07_19h46.49.027,FaceAttractiveness,2022.2.5,145.7441258163273,
treatment,0% Never,100% Always,images\ LIP_CFD_LF_224_176_N.png,0,0,0,0,2,23,213,50,,,,,,,,,,,,2023-04-07_19h46.49.027,FaceAttractiveness,2022.2.5,145.7441258163273,
treatment,0% Never,100% Always,"images\ RCHEEK_CFD_AM_233_236_N.png
",0,0,0,0,2,24,214,83,,,,,,,,,,,,2023-04-07_19h46.49.027,FaceAttractiveness,2022.2.5,145.7441258163273,
treatment,0% Never,100% Always,images\ LCHEEK_CFD_WM_212_097_N.png,0,0,0,0,2,25,215,37,,,,,,,,,,,,2023-04-07_19h46.49.027,FaceAttractiveness,2022.2.5,145.7441258163273,
treatment,0% Never,100% Always,"images\ NASALTIP_136_M_M_N_A.png
",0,0,0,0,2,26,216,60,,,,,,,,,,,,2023-04-07_19h46.49.027,FaceAttractiveness,2022.2.5,145.7441258163273,
treatment,0% Never,100% Always,images\ LCHEEK_CFD_AF_237_223_N.png,0,0,0,0,2,27,217,24,,,,,,,,,,,,2023-04-07_19h46.49.027,FaceAttractiveness,2022.2.5,145.7441258163273,
treatment,0% Never,100% Always,images\ LCHEEK_035_M_F_N_A.png,0,0,0,0,2,28,218,20,,,,,,,,,,,,2023-04-07_19h46.49.027,FaceAttractiveness,2022.2.5,145.7441258163273,
treatment,0% Never,100% Always,images\ LCHEEK_CFD_WF_250_167_N.png,0,0,0,0,2,29,219,36,,,,,,,,,,,,2023-04-07_19h46.49.027,FaceAttractiveness,2022.2.5,145.7441258163273,
treatment,0% Never,100% Always,images\ LCHEEK_CFD_BM_213_134_N.png,0,0,0,0,2,30,220,29,,,,,,,,,,,,2023-04-07_19h46.49.027,FaceAttractiveness,2022.2.5,145.7441258163273,
treatment,0% Never,100% Always,images\ RCHEEK_CFD_LM_201_057_N.png,0,0,0,0,2,31,221,89,,,,,,,,,,,,2023-04-07_19h46.49.027,FaceAttractiveness,2022.2.5,145.7441258163273,
treatment,0% Never,100% Always,images\ RCHEEK_CFD_AF_245_143_N.png,0,0,0,0,2,32,222,82,,,,,,,,,,,,2023-04-07_19h46.49.027,FaceAttractiveness,2022.2.5,145.7441258163273,
treatment,0% Never,100% Always,images\FOREHEAD_035_M_F_N_A.png,0,0,0,0,2,33,223,1,,,,,,,,,,,,2023-04-07_19h46.49.027,FaceAttractiveness,2022.2.5,145.7441258163273,
treatment,0% Never,100% Always,images\ NASALTIP_CFD_WF_250_167_N.png,0,0,0,0,2,34,224,74,,,,,,,,,,,,2023-04-07_19h46.49.027,FaceAttractiveness,2022.2.5,145.7441258163273,
treatment,0% Never,100% Always,"images\ LCHEEK_CFD_AM_233_236_N.png
",0,0,0,0,2,35,225,26,,,,,,,,,,,,2023-04-07_19h46.49.027,FaceAttractiveness,2022.2.5,145.7441258163273,
treatment,0% Never,100% Always,"images\ NASALTIP_CFD_WF_002_004_N.png
",0,0,0,0,2,36,226,72,,,,,,,,,,,,2023-04-07_19h46.49.027,FaceAttractiveness,2022.2.5,145.7441258163273,
treatment,0% Never,100% Always,images\ LCHEEK_CFD_LF_224_176_N.png,0,0,0,0,2,37,227,31,,,,,,,,,,,,2023-04-07_19h46.49.027,FaceAttractiveness,2022.2.5,145.7441258163273,
treatment,0% Never,100% Always,images\ LIP_CFD_WF_200_099_N.png,0,0,0,0,2,38,228,54,,,,,,,,,,,,2023-04-07_19h46.49.027,FaceAttractiveness,2022.2.5,145.7441258163273,
treatment,0% Never,100% Always,images\ NASALTIP_CFD_WF_200_099_N.png,0,0,0,0,2,39,229,73,,,,,,,,,,,,2023-04-07_19h46.49.027,FaceAttractiveness,2022.2.5,145.7441258163273,
treatment,0% Never,100% Always,"images\ LCHEEK_CFD_WF_002_004_N.png
",0,0,0,0,2,40,230,34,,,,,,,,,,,,2023-04-07_19h46.49.027,FaceAttractiveness,2022.2.5,145.7441258163273,
treatment,0% Never,100% Always,images\FOREHEAD_CFD_LF_224_176_N.png,0,0,0,0,2,41,231,12,,,,,,,,,,,,2023-04-07_19h46.49.027,FaceAttractiveness,2022.2.5,145.7441258163273,
treatment,0% Never,100% Always,images\FOREHEAD_CFD_AF_237_223_N.png,0,0,0,0,2,42,232,5,,,,,,,,,,,,2023-04-07_19h46.49.027,FaceAttractiveness,2022.2.5,145.7441258163273,
treatment,0% Never,100% Always,images\FOREHEAD_CFD_WM_212_097_N.png,0,0,0,0,2,43,233,18,,,,,,,,,,,,2023-04-07_19h46.49.027,FaceAttractiveness,2022.2.5,145.7441258163273,
treatment,0% Never,100% Always,images\ LCHEEK_CFD_LM_201_057_N.png,0,0,0,0,2,44,234,32,,,,,,,,,,,,2023-04-07_19h46.49.027,FaceAttractiveness,2022.2.5,145.7441258163273,
treatment,0% Never,100% Always,"images\ NASALTIP_CFD_AM_233_236_N.png
",0,0,0,0,2,45,235,64,,,,,,,,,,,,2023-04-07_19h46.49.027,FaceAttractiveness,2022.2.5,145.7441258163273,
treatment,0% Never,100% Always,images\ NASALTIP_CFD_BM_213_134_N.png,0,0,0,0,2,46,236,67,,,,,,,,,,,,2023-04-07_19h46.49.027,FaceAttractiveness,2022.2.5,145.7441258163273,
treatment,0% Never,100% Always,images\FOREHEAD_CFD_LM_203_026_N.png,0,0,0,0,2,47,237,14,,,,,,,,,,,,2023-04-07_19h46.49.027,FaceAttractiveness,2022.2.5,145.7441258163273,
treatment,0% Never,100% Always,images\ LIP_CFD_WF_250_167_N.png,0,0,0,0,2,48,238,55,,,,,,,,,,,,2023-04-07_19h46.49.027,FaceAttractiveness,2022.2.5,145.7441258163273,
treatment,0% Never,100% Always,images\ RCHEEK_CFD_LM_203_026_N.png,0,0,0,0,2,49,239,90,,,,,,,,,,,,2023-04-07_19h46.49.027,FaceAttractiveness,2022.2.5,145.7441258163273,
treatment,0% Never,100% Always,"images\ RCHEEK_CFD_WF_002_004_N.png
",0,0,0,0,2,50,240,91,,,,,,,,,,,,2023-04-07_19h46.49.027,FaceAttractiveness,2022.2.5,145.7441258163273,
treatment,0% Never,100% Always,images\ RCHEEK_006_M_F_N_A.png,0,0,0,0,2,51,241,76,,,,,,,,,,,,2023-04-07_19h46.49.027,FaceAttractiveness,2022.2.5,145.7441258163273,
treatment,0% Never,100% Always,images\ NASALTIP_CFD_BF_224_002_N.png,0,0,0,0,2,52,242,66,,,,,,,,,,,,2023-04-07_19h46.49.027,FaceAttractiveness,2022.2.5,145.7441258163273,
treatment,0% Never,100% Always,images\ LIP_CFD_AF_237_223_N.png,0,0,0,0,2,53,243,43,,,,,,,,,,,,2023-04-07_19h46.49.027,FaceAttractiveness,2022.2.5,145.7441258163273,
treatment,0% Never,100% Always,images\FOREHEAD_CFD_LM_201_057_N.png,0,0,0,0,2,54,244,13,,,,,,,,,,,,2023-04-07_19h46.49.027,FaceAttractiveness,2022.2.5,145.7441258163273,
treatment,0% Never,100% Always,images\ RCHEEK_CFD_LF_224_176_N.png,0,0,0,0,2,55,245,88,,,,,,,,,,,,2023-04-07_19h46.49.027,FaceAttractiveness,2022.2.5,145.7441258163273,
treatment,0% Never,100% Always,images\ NASALTIP_CFD_LM_201_057_N.png,0,0,0,0,2,56,246,70,,,,,,,,,,,,2023-04-07_19h46.49.027,FaceAttractiveness,2022.2.5,145.7441258163273,
treatment,0% Never,100% Always,images\ LCHEEK_087_M_M_N_A.png,0,0,0,0,2,57,247,21,,,,,,,,,,,,2023-04-07_19h46.49.027,FaceAttractiveness,2022.2.5,145.7441258163273,
treatment,0% Never,100% Always,"images\ LCHEEK_CFD_BM_234_172_N.png
",0,0,0,0,2,58,248,30,,,,,,,,,,,,2023-04-07_19h46.49.027,FaceAttractiveness,2022.2.5,145.7441258163273,
treatment,0% Never,100% Always,images\ RCHEEK_CFD_BF_214_308_N.png,0,0,0,0,2,59,249,84,,,,,,,,,,,,2023-04-07_19h46.49.027,FaceAttractiveness,2022.2.5,145.7441258163273,
treatment,0% Never,100% Always,images\FOREHEAD_087_M_M_N_A.png,0,0,0,0,2,60,250,2,,,,,,,,,,,,2023-04-07_19h46.49.027,FaceAttractiveness,2022.2.5,145.7441258163273,
treatment,0% Never,100% Always,images\ LCHEEK_CFD_LM_203_026_N.png,0,0,0,0,2,61,251,33,,,,,,,,,,,,2023-04-07_19h46.49.027,FaceAttractiveness,2022.2.5,145.7441258163273,
treatment,0% Never,100% Always,images\ NASALTIP_006_M_F_N_A.png,0,0,0,0,2,62,252,57,,,,,,,,,,,,2023-04-07_19h46.49.027,FaceAttractiveness,2022.2.5,145.7441258163273,
treatment,0% Never,100% Always,images\ RCHEEK_CFD_BM_213_134_N.png,0,0,0,0,2,63,253,86,,,,,,,,,,,,2023-04-07_19h46.49.027,FaceAttractiveness,2022.2.5,145.7441258163273,
treatment,0% Never,100% Always,images\ NASALTIP_CFD_AF_237_223_N.png,0,0,0,0,2,64,254,62,,,,,,,,,,,,2023-04-07_19h46.49.027,FaceAttractiveness,2022.2.5,145.7441258163273,
treatment,0% Never,100% Always,"images\ LIP_CFD_WF_002_004_N.png
",0,0,0,0,2,65,255,53,,,,,,,,,,,,2023-04-07_19h46.49.027,FaceAttractiveness,2022.2.5,145.7441258163273,
treatment,0% Never,100% Always,images\ RCHEEK_CFD_AF_237_223_N.png,0,0,0,0,2,66,256,81,,,,,,,,,,,,2023-04-07_19h46.49.027,FaceAttractiveness,2022.2.5,145.7441258163273,
treatment,0% Never,100% Always,images\FOREHEAD_CFD_BF_214_308_N.png,0,0,0,0,2,67,257,8,,,,,,,,,,,,2023-04-07_19h46.49.027,FaceAttractiveness,2022.2.5,145.7441258163273,
treatment,0% Never,100% Always,images\FOREHEAD_CFD_WF_250_167_N.png,0,0,0,0,2,68,258,17,,,,,,,,,,,,2023-04-07_19h46.49.027,FaceAttractiveness,2022.2.5,145.7441258163273,
treatment,0% Never,100% Always,images\FOREHEAD_136_M_M_N_A.png,0,0,0,0,2,69,259,3,,,,,,,,,,,,2023-04-07_19h46.49.027,FaceAttractiveness,2022.2.5,145.7441258163273,
treatment,0% Never,100% Always,images\ NASALTIP_087_M_M_N_A.png,0,0,0,0,2,70,260,59,,,,,,,,,,,,2023-04-07_19h46.49.027,FaceAttractiveness,2022.2.5,145.7441258163273,
treatment,0% Never,100% Always,"images\ LIP_CFD_BM_234_172_N.png
",0,0,0,0,2,71,261,49,,,,,,,,,,,,2023-04-07_19h46.49.027,FaceAttractiveness,2022.2.5,145.7441258163273,
treatment,0% Never,100% Always,images\ RCHEEK_035_M_F_N_A.png,0,0,0,0,2,72,262,77,,,,,,,,,,,,2023-04-07_19h46.49.027,FaceAttractiveness,2022.2.5,145.7441258163273,
treatment,0% Never,100% Always,images\ LIP_035_M_F_N_A.png,0,0,0,0,2,73,263,39,,,,,,,,,,,,2023-04-07_19h46.49.027,FaceAttractiveness,2022.2.5,145.7441258163273,
treatment,0% Never,100% Always,images\ NASALTIP_035_M_F_N_A.png,0,0,0,0,2,74,264,58,,,,,,,,,,,,2023-04-07_19h46.49.027,FaceAttractiveness,2022.2.5,145.7441258163273,
treatment,0% Never,100% Always,images\FOREHEAD_CFD_AF_231_357_N.png,0,0,0,0,2,75,265,4,,,,,,,,,,,,2023-04-07_19h46.49.027,FaceAttractiveness,2022.2.5,145.7441258163273,
treatment,0% Never,100% Always,images\ NASALTIP_CFD_WM_212_097_N.png,0,0,0,0,2,76,266,75,,,,,,,,,,,,2023-04-07_19h46.49.027,FaceAttractiveness,2022.2.5,145.7441258163273,
treatment,0% Never,100% Always,images\ LCHEEK_CFD_BF_214_308_N.png,0,0,0,0,2,77,267,27,,,,,,,,,,,,2023-04-07_19h46.49.027,FaceAttractiveness,2022.2.5,145.7441258163273,
treatment,0% Never,100% Always,images\ RCHEEK_087_M_M_N_A.png,0,0,0,0,2,78,268,78,,,,,,,,,,,,2023-04-07_19h46.49.027,FaceAttractiveness,2022.2.5,145.7441258163273,
treatment,0% Never,100% Always,images\ NASALTIP_CFD_AF_245_143_N.png,0,0,0,0,2,79,269,63,,,,,,,,,,,,2023-04-07_19h46.49.027,FaceAttractiveness,2022.2.5,145.7441258163273,
treatment,0% Never,100% Always,images\ RCHEEK_CFD_BF_224_002_N.png,0,0,0,0,2,80,270,85,,,,,,,,,,,,2023-04-07_19h46.49.027,FaceAttractiveness,2022.2.5,145.7441258163273,
treatment,0% Never,100% Always,"images\ LIP_136_M_M_N_A.png
",0,0,0,0,2,81,271,41,,,,,,,,,,,,2023-04-07_19h46.49.027,FaceAttractiveness,2022.2.5,145.7441258163273,
treatment,0% Never,100% Always,images\ LCHEEK_006_M_F_N_A.png,0,0,0,0,2,82,272,19,,,,,,,,,,,,2023-04-07_19h46.49.027,FaceAttractiveness,2022.2.5,145.7441258163273,
treatment,0% Never,100% Always,images\ LCHEEK_CFD_AF_245_143_N.png,0,0,0,0,2,83,273,25,,,,,,,,,,,,2023-04-07_19h46.49.027,FaceAttractiveness,2022.2.5,145.7441258163273,
treatment,0% Never,100% Always,"images\ LCHEEK_136_M_M_N_A.png
",0,0,0,0,2,84,274,22,,,,,,,,,,,,2023-04-07_19h46.49.027,FaceAttractiveness,2022.2.5,145.7441258163273,
treatment,0% Never,100% Always,images\ RCHEEK_CFD_WF_250_167_N.png,0,0,0,0,2,85,275,93,,,,,,,,,,,,2023-04-07_19h46.49.027,FaceAttractiveness,2022.2.5,145.7441258163273,
treatment,0% Never,100% Always,images\ NASALTIP_CFD_AF_231_357_N.png,0,0,0,0,2,86,276,61,,,,,,,,,,,,2023-04-07_19h46.49.027,FaceAttractiveness,2022.2.5,145.7441258163273,
treatment,0% Never,100% Always,images\FOREHEAD_CFD_AF_245_143_N.png,0,0,0,0,2,87,277,6,,,,,,,,,,,,2023-04-07_19h46.49.027,FaceAttractiveness,2022.2.5,145.7441258163273,
treatment,0% Never,100% Always,images\ LCHEEK_CFD_WF_200_099_N.png,0,0,0,0,2,88,278,35,,,,,,,,,,,,2023-04-07_19h46.49.027,FaceAttractiveness,2022.2.5,145.7441258163273,
treatment,0% Never,100% Always,images\ LIP_CFD_AF_231_357_N.png,0,0,0,0,2,89,279,42,,,,,,,,,,,,2023-04-07_19h46.49.027,FaceAttractiveness,2022.2.5,145.7441258163273,
treatment,0% Never,100% Always,images\ NASALTIP_CFD_BF_214_308_N.png,0,0,0,0,2,90,280,65,,,,,,,,,,,,2023-04-07_19h46.49.027,FaceAttractiveness,2022.2.5,145.7441258163273,
treatment,0% Never,100% Always,images\FOREHEAD_CFD_AM_233_236_N.png,0,0,0,0,2,91,281,7,,,,,,,,,,,,2023-04-07_19h46.49.027,FaceAttractiveness,2022.2.5,145.7441258163273,
treatment,0% Never,100% Always,images\ LIP_CFD_LM_201_057_N.png,0,0,0,0,2,92,282,51,,,,,,,,,,,,2023-04-07_19h46.49.027,FaceAttractiveness,2022.2.5,145.7441258163273,
treatment,0% Never,100% Always,images\ LIP_CFD_BF_224_002_N.png,0,0,0,0,2,93,283,47,,,,,,,,,,,,2023-04-07_19h46.49.027,FaceAttractiveness,2022.2.5,145.7441258163273,
treatment,0% Never,100% Always,images\ RCHEEK_CFD_WM_212_097_N.png,0,0,0,0,2,94,284,94,,,,,,,,,,,,2023-04-07_19h46.49.027,FaceAttractiveness,2022.2.5,145.7441258163273,
treatment,0% Never,100% Always,images\ LCHEEK_CFD_LF_224_176_N.png,0,0,0,0,3,0,285,31,,,,,,,,,,,,2023-04-07_19h46.49.027,FaceAttractiveness,2022.2.5,145.7441258163273,
treatment,0% Never,100% Always,images\ NASALTIP_CFD_BM_213_134_N.png,0,0,0,0,3,1,286,67,,,,,,,,,,,,2023-04-07_19h46.49.027,FaceAttractiveness,2022.2.5,145.7441258163273,
treatment,0% Never,100% Always,images\FOREHEAD_CFD_WF_250_167_N.png,0,0,0,0,3,2,287,17,,,,,,,,,,,,2023-04-07_19h46.49.027,FaceAttractiveness,2022.2.5,145.7441258163273,
treatment,0% Never,100% Always,images\ NASALTIP_CFD_WM_212_097_N.png,0,0,0,0,3,3,288,75,,,,,,,,,,,,2023-04-07_19h46.49.027,FaceAttractiveness,2022.2.5,145.7441258163273,
treatment,0% Never,100% Always,images\ NASALTIP_CFD_AF_231_357_N.png,0,0,0,0,3,4,289,61,,,,,,,,,,,,2023-04-07_19h46.49.027,FaceAttractiveness,2022.2.5,145.7441258163273,
treatment,0% Never,100% Always,images\FOREHEAD_CFD_BF_214_308_N.png,0,0,0,0,3,5,290,8,,,,,,,,,,,,2023-04-07_19h46.49.027,FaceAttractiveness,2022.2.5,145.7441258163273,
treatment,0% Never,100% Always,images\FOREHEAD_087_M_M_N_A.png,0,0,0,0,3,6,291,2,,,,,,,,,,,,2023-04-07_19h46.49.027,FaceAttractiveness,2022.2.5,145.7441258163273,
treatment,0% Never,100% Always,"images\ LCHEEK_CFD_WF_002_004_N.png
",0,0,0,0,3,7,292,34,,,,,,,,,,,,2023-04-07_19h46.49.027,FaceAttractiveness,2022.2.5,145.7441258163273,
treatment,0% Never,100% Always,images\FOREHEAD_CFD_WF_002_004_N.png,0,0,0,0,3,8,293,15,,,,,,,,,,,,2023-04-07_19h46.49.027,FaceAttractiveness,2022.2.5,145.7441258163273,
treatment,0% Never,100% Always,images\ RCHEEK_CFD_AF_245_143_N.png,0,0,0,0,3,9,294,82,,,,,,,,,,,,2023-04-07_19h46.49.027,FaceAttractiveness,2022.2.5,145.7441258163273,
treatment,0% Never,100% Always,images\FOREHEAD_CFD_LM_203_026_N.png,0,0,0,0,3,10,295,14,,,,,,,,,,,,2023-04-07_19h46.49.027,FaceAttractiveness,2022.2.5,145.7441258163273,
treatment,0% Never,100% Always,images\ NASALTIP_CFD_WF_250_167_N.png,0,0,0,0,3,11,296,74,,,,,,,,,,,,2023-04-07_19h46.49.027,FaceAttractiveness,2022.2.5,145.7441258163273,
treatment,0% Never,100% Always,images\ RCHEEK_CFD_WF_250_167_N.png,0,0,0,0,3,12,297,93,,,,,,,,,,,,2023-04-07_19h46.49.027,FaceAttractiveness,2022.2.5,145.7441258163273,
treatment,0% Never,100% Always,images\ RCHEEK_035_M_F_N_A.png,0,0,0,0,3,13,298,77,,,,,,,,,,,,2023-04-07_19h46.49.027,FaceAttractiveness,2022.2.5,145.7441258163273,
treatment,0% Never,100% Always,images\ NASALTIP_CFD_BF_224_002_N.png,0,0,0,0,3,14,299,66,,,,,,,,,,,,2023-04-07_19h46.49.027,FaceAttractiveness,2022.2.5,145.7441258163273,
treatment,0% Never,100% Always,images\ LCHEEK_CFD_BF_224_002_N.png,0,0,0,0,3,15,300,28,,,,,,,,,,,,2023-04-07_19h46.49.027,FaceAttractiveness,2022.2.5,145.7441258163273,
treatment,0% Never,100% Always,images\ RCHEEK_CFD_BF_214_308_N.png,0,0,0,0,3,16,301,84,,,,,,,,,,,,2023-04-07_19h46.49.027,FaceAttractiveness,2022.2.5,145.7441258163273,
treatment,0% Never,100% Always,images\FOREHEAD_CFD_BM_234_172_N.png,0,0,0,0,3,17,302,11,,,,,,,,,,,,2023-04-07_19h46.49.027,FaceAttractiveness,2022.2.5,145.7441258163273,
treatment,0% Never,100% Always,images\ LCHEEK_CFD_WM_212_097_N.png,0,0,0,0,3,18,303,37,,,,,,,,,,,,2023-04-07_19h46.49.027,FaceAttractiveness,2022.2.5,145.7441258163273,
treatment,0% Never,100% Always,"images\ LIP_CFD_WF_002_004_N.png
",0,0,0,0,3,19,304,53,,,,,,,,,,,,2023-04-07_19h46.49.027,FaceAttractiveness,2022.2.5,145.7441258163273,
treatment,0% Never,100% Always,"images\ NASALTIP_CFD_WF_002_004_N.png
",0,0,0,0,3,20,305,72,,,,,,,,,,,,2023-04-07_19h46.49.027,FaceAttractiveness,2022.2.5,145.7441258163273,
treatment,0% Never,100% Always,images\ LIP_CFD_BM_213_134_N.png,0,0,0,0,3,21,306,48,,,,,,,,,,,,2023-04-07_19h46.49.027,FaceAttractiveness,2022.2.5,145.7441258163273,
treatment,0% Never,100% Always,images\ LIP_CFD_LM_203_026_N.png,0,0,0,0,3,22,307,52,,,,,,,,,,,,2023-04-07_19h46.49.027,FaceAttractiveness,2022.2.5,145.7441258163273,
treatment,0% Never,100% Always,images\ LIP_CFD_BF_224_002_N.png,0,0,0,0,3,23,308,47,,,,,,,,,,,,2023-04-07_19h46.49.027,FaceAttractiveness,2022.2.5,145.7441258163273,
treatment,0% Never,100% Always,images\ NASALTIP_CFD_BF_214_308_N.png,0,0,0,0,3,24,309,65,,,,,,,,,,,,2023-04-07_19h46.49.027,FaceAttractiveness,2022.2.5,145.7441258163273,
treatment,0% Never,100% Always,images\ RCHEEK_CFD_LM_201_057_N.png,0,0,0,0,3,25,310,89,,,,,,,,,,,,2023-04-07_19h46.49.027,FaceAttractiveness,2022.2.5,145.7441258163273,
treatment,0% Never,100% Always,images\ RCHEEK_CFD_WM_212_097_N.png,0,0,0,0,3,26,311,94,,,,,,,,,,,,2023-04-07_19h46.49.027,FaceAttractiveness,2022.2.5,145.7441258163273,
treatment,0% Never,100% Always,"images\ LIP_CFD_AM_233_236_N.png
",0,0,0,0,3,27,312,45,,,,,,,,,,,,2023-04-07_19h46.49.027,FaceAttractiveness,2022.2.5,145.7441258163273,
treatment,0% Never,100% Always,images\FOREHEAD_CFD_LM_201_057_N.png,0,0,0,0,3,28,313,13,,,,,,,,,,,,2023-04-07_19h46.49.027,FaceAttractiveness,2022.2.5,145.7441258163273,
treatment,0% Never,100% Always,images\ LIP_006_M_F_N_A.png,0,0,0,0,3,29,314,38,,,,,,,,,,,,2023-04-07_19h46.49.027,FaceAttractiveness,2022.2.5,145.7441258163273,
treatment,0% Never,100% Always,images\ RCHEEK_CFD_AF_231_357_N.png,0,0,0,0,3,30,315,80,,,,,,,,,,,,2023-04-07_19h46.49.027,FaceAttractiveness,2022.2.5,145.7441258163273,
treatment,0% Never,100% Always,images\FOREHEAD_CFD_WF_200_099_N.png,0,0,0,0,3,31,316,16,,,,,,,,,,,,2023-04-07_19h46.49.027,FaceAttractiveness,2022.2.5,145.7441258163273,
treatment,0% Never,100% Always,"images\ NASALTIP_CFD_BM_234_172_N.png
",0,0,0,0,3,32,317,68,,,,,,,,,,,,2023-04-07_19h46.49.027,FaceAttractiveness,2022.2.5,145.7441258163273,
treatment,0% Never,100% Always,images\ LCHEEK_087_M_M_N_A.png,0,0,0,0,3,33,318,21,,,,,,,,,,,,2023-04-07_19h46.49.027,FaceAttractiveness,2022.2.5,145.7441258163273,
treatment,0% Never,100% Always,images\ LIP_CFD_WF_250_167_N.png,0,0,0,0,3,34,319,55,,,,,,,,,,,,2023-04-07_19h46.49.027,FaceAttractiveness,2022.2.5,145.7441258163273,
treatment,0% Never,100% Always,images\ RCHEEK_CFD_LF_224_176_N.png,0,0,0,0,3,35,320,88,,,,,,,,,,,,2023-04-07_19h46.49.027,FaceAttractiveness,2022.2.5,145.7441258163273,
treatment,0% Never,100% Always,images\ LIP_CFD_AF_237_223_N.png,0,0,0,0,3,36,321,43,,,,,,,,,,,,2023-04-07_19h46.49.027,FaceAttractiveness,2022.2.5,145.7441258163273,
treatment,0% Never,100% Always,images\ LIP_CFD_BF_214_308_N.png,0,0,0,0,3,37,322,46,,,,,,,,,,,,2023-04-07_19h46.49.027,FaceAttractiveness,2022.2.5,145.7441258163273,
treatment,0% Never,100% Always,"images\ NASALTIP_CFD_AM_233_236_N.png
",0,0,0,0,3,38,323,64,,,,,,,,,,,,2023-04-07_19h46.49.027,FaceAttractiveness,2022.2.5,145.7441258163273,
treatment,0% Never,100% Always,images\ LCHEEK_CFD_AF_237_223_N.png,0,0,0,0,3,39,324,24,,,,,,,,,,,,2023-04-07_19h46.49.027,FaceAttractiveness,2022.2.5,145.7441258163273,
treatment,0% Never,100% Always,"images\ RCHEEK_CFD_WF_002_004_N.png
",0,0,0,0,3,40,325,91,,,,,,,,,,,,2023-04-07_19h46.49.027,FaceAttractiveness,2022.2.5,145.7441258163273,
treatment,0% Never,100% Always,images\FOREHEAD_CFD_AF_237_223_N.png,0,0,0,0,3,41,326,5,,,,,,,,,,,,2023-04-07_19h46.49.027,FaceAttractiveness,2022.2.5,145.7441258163273,
treatment,0% Never,100% Always,images\ NASALTIP_CFD_WF_200_099_N.png,0,0,0,0,3,42,327,73,,,,,,,,,,,,2023-04-07_19h46.49.027,FaceAttractiveness,2022.2.5,145.7441258163273,
treatment,0% Never,100% Always,images\ LCHEEK_CFD_LM_203_026_N.png,0,0,0,0,3,43,328,33,,,,,,,,,,,,2023-04-07_19h46.49.027,FaceAttractiveness,2022.2.5,145.7441258163273,
treatment,0% Never,100% Always,"images\ RCHEEK_136_M_M_N_A.png
",0,0,0,0,3,44,329,79,,,,,,,,,,,,2023-04-07_19h46.49.027,FaceAttractiveness,2022.2.5,145.7441258163273,
treatment,0% Never,100% Always,images\ LIP_CFD_LM_201_057_N.png,0,0,0,0,3,45,330,51,,,,,,,,,,,,2023-04-07_19h46.49.027,FaceAttractiveness,2022.2.5,145.7441258163273,
treatment,0% Never,100% Always,images\ LIP_CFD_LF_224_176_N.png,0,0,0,0,3,46,331,50,,,,,,,,,,,,2023-04-07_19h46.49.027,FaceAttractiveness,2022.2.5,145.7441258163273,
treatment,0% Never,100% Always,images\ NASALTIP_CFD_LM_203_026_N.png,0,0,0,0,3,47,332,71,,,,,,,,,,,,2023-04-07_19h46.49.027,FaceAttractiveness,2022.2.5,145.7441258163273,
treatment,0% Never,100% Always,"images\ RCHEEK_CFD_AM_233_236_N.png
",0,0,0,0,3,48,333,83,,,,,,,,,,,,2023-04-07_19h46.49.027,FaceAttractiveness,2022.2.5,145.7441258163273,
treatment,0% Never,100% Always,images\ RCHEEK_CFD_WF_200_099_N.png,0,0,0,0,3,49,334,92,,,,,,,,,,,,2023-04-07_19h46.49.027,FaceAttractiveness,2022.2.5,145.7441258163273,
treatment,0% Never,100% Always,"images\ LCHEEK_CFD_AM_233_236_N.png
",0,0,0,0,3,50,335,26,,,,,,,,,,,,2023-04-07_19h46.49.027,FaceAttractiveness,2022.2.5,145.7441258163273,
treatment,0% Never,100% Always,images\FOREHEAD_035_M_F_N_A.png,0,0,0,0,3,51,336,1,,,,,,,,,,,,2023-04-07_19h46.49.027,FaceAttractiveness,2022.2.5,145.7441258163273,
treatment,0% Never,100% Always,images\ LCHEEK_CFD_BM_213_134_N.png,0,0,0,0,3,52,337,29,,,,,,,,,,,,2023-04-07_19h46.49.027,FaceAttractiveness,2022.2.5,145.7441258163273,
treatment,0% Never,100% Always,images\ RCHEEK_006_M_F_N_A.png,0,0,0,0,3,53,338,76,,,,,,,,,,,,2023-04-07_19h46.49.027,FaceAttractiveness,2022.2.5,145.7441258163273,
treatment,0% Never,100% Always,"images\ NASALTIP_136_M_M_N_A.png
",0,0,0,0,3,54,339,60,,,,,,,,,,,,2023-04-07_19h46.49.027,FaceAttractiveness,2022.2.5,145.7441258163273,
treatment,0% Never,100% Always,images\ RCHEEK_CFD_AF_237_223_N.png,0,0,0,0,3,55,340,81,,,,,,,,,,,,2023-04-07_19h46.49.027,FaceAttractiveness,2022.2.5,145.7441258163273,
treatment,0% Never,100% Always,images\ NASALTIP_CFD_LM_201_057_N.png,0,0,0,0,3,56,341,70,,,,,,,,,,,,2023-04-07_19h46.49.027,FaceAttractiveness,2022.2.5,145.7441258163273,
treatment,0% Never,100% Always,images\ LIP_CFD_AF_231_357_N.png,0,0,0,0,3,57,342,42,,,,,,,,,,,,2023-04-07_19h46.49.027,FaceAttractiveness,2022.2.5,145.7441258163273,
treatment,0% Never,100% Always,images\ LCHEEK_006_M_F_N_A.png,0,0,0,0,3,58,343,19,,,,,,,,,,,,2023-04-07_19h46.49.027,FaceAttractiveness,2022.2.5,145.7441258163273,
treatment,0% Never,100% Always,images\ RCHEEK_CFD_LM_203_026_N.png,0,0,0,0,3,59,344,90,,,,,,,,,,,,2023-04-07_19h46.49.027,FaceAttractiveness,2022.2.5,145.7441258163273,
treatment,0% Never,100% Always,images\ LCHEEK_CFD_AF_231_357_N.png,0,0,0,0,3,60,345,23,,,,,,,,,,,,2023-04-07_19h46.49.027,FaceAttractiveness,2022.2.5,145.7441258163273,
treatment,0% Never,100% Always,images\ RCHEEK_087_M_M_N_A.png,0,0,0,0,3,61,346,78,,,,,,,,,,,,2023-04-07_19h46.49.027,FaceAttractiveness,2022.2.5,145.7441258163273,
treatment,0% Never,100% Always,images\ NASALTIP_CFD_LF_224_176_N.png,0,0,0,0,3,62,347,69,,,,,,,,,,,,2023-04-07_19h46.49.027,FaceAttractiveness,2022.2.5,145.7441258163273,
treatment,0% Never,100% Always,images\ NASALTIP_035_M_F_N_A.png,0,0,0,0,3,63,348,58,,,,,,,,,,,,2023-04-07_19h46.49.027,FaceAttractiveness,2022.2.5,145.7441258163273,
treatment,0% Never,100% Always,images\ RCHEEK_CFD_BM_213_134_N.png,0,0,0,0,3,64,349,86,,,,,,,,,,,,2023-04-07_19h46.49.027,FaceAttractiveness,2022.2.5,145.7441258163273,
treatment,0% Never,100% Always,images\ NASALTIP_CFD_AF_237_223_N.png,0,0,0,0,3,65,350,62,,,,,,,,,,,,2023-04-07_19h46.49.027,FaceAttractiveness,2022.2.5,145.7441258163273,
treatment,0% Never,100% Always,images\ NASALTIP_CFD_AF_245_143_N.png,0,0,0,0,3,66,351,63,,,,,,,,,,,,2023-04-07_19h46.49.027,FaceAttractiveness,2022.2.5,145.7441258163273,
treatment,0% Never,100% Always,images\ LIP_CFD_AF_245_143_N.png,0,0,0,0,3,67,352,44,,,,,,,,,,,,2023-04-07_19h46.49.027,FaceAttractiveness,2022.2.5,145.7441258163273,
treatment,0% Never,100% Always,images\ LIP_CFD_WF_200_099_N.png,0,0,0,0,3,68,353,54,,,,,,,,,,,,2023-04-07_19h46.49.027,FaceAttractiveness,2022.2.5,145.7441258163273,
treatment,0% Never,100% Always,images\ LCHEEK_CFD_LM_201_057_N.png,0,0,0,0,3,69,354,32,,,,,,,,,,,,2023-04-07_19h46.49.027,FaceAttractiveness,2022.2.5,145.7441258163273,
treatment,0% Never,100% Always,images\FOREHEAD_CFD_BF_224_002_N.png,0,0,0,0,3,70,355,9,,,,,,,,,,,,2023-04-07_19h46.49.027,FaceAttractiveness,2022.2.5,145.7441258163273,
treatment,0% Never,100% Always,images\FOREHEAD_136_M_M_N_A.png,0,0,0,0,3,71,356,3,,,,,,,,,,,,2023-04-07_19h46.49.027,FaceAttractiveness,2022.2.5,145.7441258163273,
treatment,0% Never,100% Always,"images\ LCHEEK_136_M_M_N_A.png
",0,0,0,0,3,72,357,22,,,,,,,,,,,,2023-04-07_19h46.49.027,FaceAttractiveness,2022.2.5,145.7441258163273,
treatment,0% Never,100% Always,images\ LCHEEK_CFD_WF_250_167_N.png,0,0,0,0,3,73,358,36,,,,,,,,,,,,2023-04-07_19h46.49.027,FaceAttractiveness,2022.2.5,145.7441258163273,
treatment,0% Never,100% Always,"images\ LCHEEK_CFD_BM_234_172_N.png
",0,0,0,0,3,74,359,30,,,,,,,,,,,,2023-04-07_19h46.49.027,FaceAttractiveness,2022.2.5,145.7441258163273,
treatment,0% Never,100% Always,"images\ LIP_136_M_M_N_A.png
",0,0,0,0,3,75,360,41,,,,,,,,,,,,2023-04-07_19h46.49.027,FaceAttractiveness,2022.2.5,145.7441258163273,
treatment,0% Never,100% Always,images\ NASALTIP_087_M_M_N_A.png,0,0,0,0,3,76,361,59,,,,,,,,,,,,2023-04-07_19h46.49.027,FaceAttractiveness,2022.2.5,145.7441258163273,
treatment,0% Never,100% Always,"images\ LIP_CFD_BM_234_172_N.png
",0,0,0,0,3,77,362,49,,,,,,,,,,,,2023-04-07_19h46.49.027,FaceAttractiveness,2022.2.5,145.7441258163273,
treatment,0% Never,100% Always,"images\ RCHEEK_CFD_BM_234_172_N.png
",0,0,0,0,3,78,363,87,,,,,,,,,,,,2023-04-07_19h46.49.027,FaceAttractiveness,2022.2.5,145.7441258163273,
treatment,0% Never,100% Always,images\ LCHEEK_CFD_AF_245_143_N.png,0,0,0,0,3,79,364,25,,,,,,,,,,,,2023-04-07_19h46.49.027,FaceAttractiveness,2022.2.5,145.7441258163273,
treatment,0% Never,100% Always,images\FOREHEAD_CFD_AF_231_357_N.png,0,0,0,0,3,80,365,4,,,,,,,,,,,,2023-04-07_19h46.49.027,FaceAttractiveness,2022.2.5,145.7441258163273,
treatment,0% Never,100% Always,images\FOREHEAD_CFD_AF_245_143_N.png,0,0,0,0,3,81,366,6,,,,,,,,,,,,2023-04-07_19h46.49.027,FaceAttractiveness,2022.2.5,145.7441258163273,
treatment,0% Never,100% Always,images\ LCHEEK_CFD_WF_200_099_N.png,0,0,0,0,3,82,367,35,,,,,,,,,,,,2023-04-07_19h46.49.027,FaceAttractiveness,2022.2.5,145.7441258163273,
treatment,0% Never,100% Always,images\FOREHEAD_CFD_AM_233_236_N.png,0,0,0,0,3,83,368,7,,,,,,,,,,,,2023-04-07_19h46.49.027,FaceAttractiveness,2022.2.5,145.7441258163273,
treatment,0% Never,100% Always,images\FOREHEAD_006_M_F_N_A.png,0,0,0,0,3,84,369,0,,,,,,,,,,,,2023-04-07_19h46.49.027,FaceAttractiveness,2022.2.5,145.7441258163273,
treatment,0% Never,100% Always,images\ LIP_087_M_M_N_A.png,0,0,0,0,3,85,370,40,,,,,,,,,,,,2023-04-07_19h46.49.027,FaceAttractiveness,2022.2.5,145.7441258163273,
treatment,0% Never,100% Always,images\ LCHEEK_CFD_BF_214_308_N.png,0,0,0,0,3,86,371,27,,,,,,,,,,,,2023-04-07_19h46.49.027,FaceAttractiveness,2022.2.5,145.7441258163273,
treatment,0% Never,100% Always,images\ RCHEEK_CFD_BF_224_002_N.png,0,0,0,0,3,87,372,85,,,,,,,,,,,,2023-04-07_19h46.49.027,FaceAttractiveness,2022.2.5,145.7441258163273,
treatment,0% Never,100% Always,images\ LIP_035_M_F_N_A.png,0,0,0,0,3,88,373,39,,,,,,,,,,,,2023-04-07_19h46.49.027,FaceAttractiveness,2022.2.5,145.7441258163273,
treatment,0% Never,100% Always,images\ NASALTIP_006_M_F_N_A.png,0,0,0,0,3,89,374,57,,,,,,,,,,,,2023-04-07_19h46.49.027,FaceAttractiveness,2022.2.5,145.7441258163273,
treatment,0% Never,100% Always,images\FOREHEAD_CFD_BM_213_134_N.png,0,0,0,0,3,90,375,10,,,,,,,,,,,,2023-04-07_19h46.49.027,FaceAttractiveness,2022.2.5,145.7441258163273,
treatment,0% Never,100% Always,images\FOREHEAD_CFD_WM_212_097_N.png,0,0,0,0,3,91,376,18,,,,,,,,,,,,2023-04-07_19h46.49.027,FaceAttractiveness,2022.2.5,145.7441258163273,
treatment,0% Never,100% Always,images\ LIP_CFD_WM_212_097_N.png,0,0,0,0,3,92,377,56,,,,,,,,,,,,2023-04-07_19h46.49.027,FaceAttractiveness,2022.2.5,145.7441258163273,
treatment,0% Never,100% Always,images\FOREHEAD_CFD_LF_224_176_N.png,0,0,0,0,3,93,378,12,,,,,,,,,,,,2023-04-07_19h46.49.027,FaceAttractiveness,2022.2.5,145.7441258163273,
treatment,0% Never,100% Always,images\ LCHEEK_035_M_F_N_A.png,0,0,0,0,3,94,379,20,,,,,,,,,,,,2023-04-07_19h46.49.027,FaceAttractiveness,2022.2.5,145.7441258163273,
treatment,0% Never,100% Always,images\ RCHEEK_CFD_BM_213_134_N.png,0,0,0,0,4,0,380,86,,,,,,,,,,,,2023-04-07_19h46.49.027,FaceAttractiveness,2022.2.5,145.7441258163273,
treatment,0% Never,100% Always,images\ RCHEEK_CFD_WF_200_099_N.png,0,0,0,0,4,1,381,92,,,,,,,,,,,,2023-04-07_19h46.49.027,FaceAttractiveness,2022.2.5,145.7441258163273,
treatment,0% Never,100% Always,images\ RCHEEK_CFD_AF_237_223_N.png,0,0,0,0,4,2,382,81,,,,,,,,,,,,2023-04-07_19h46.49.027,FaceAttractiveness,2022.2.5,145.7441258163273,
treatment,0% Never,100% Always,"images\ RCHEEK_CFD_BM_234_172_N.png
",0,0,0,0,4,3,383,87,,,,,,,,,,,,2023-04-07_19h46.49.027,FaceAttractiveness,2022.2.5,145.7441258163273,
treatment,0% Never,100% Always,images\ RCHEEK_CFD_LF_224_176_N.png,0,0,0,0,4,4,384,88,,,,,,,,,,,,2023-04-07_19h46.49.027,FaceAttractiveness,2022.2.5,145.7441258163273,
treatment,0% Never,100% Always,images\ NASALTIP_006_M_F_N_A.png,0,0,0,0,4,5,385,57,,,,,,,,,,,,2023-04-07_19h46.49.027,FaceAttractiveness,2022.2.5,145.7441258163273,
treatment,0% Never,100% Always,images\FOREHEAD_CFD_WF_200_099_N.png,0,0,0,0,4,6,386,16,,,,,,,,,,,,2023-04-07_19h46.49.027,FaceAttractiveness,2022.2.5,145.7441258163273,
treatment,0% Never,100% Always,images\ NASALTIP_CFD_BM_213_134_N.png,0,0,0,0,4,7,387,67,,,,,,,,,,,,2023-04-07_19h46.49.027,FaceAttractiveness,2022.2.5,145.7441258163273,
treatment,0% Never,100% Always,images\ LCHEEK_087_M_M_N_A.png,0,0,0,0,4,8,388,21,,,,,,,,,,,,2023-04-07_19h46.49.027,FaceAttractiveness,2022.2.5,145.7441258163273,
treatment,0% Never,100% Always,images\ LIP_CFD_BF_214_308_N.png,0,0,0,0,4,9,389,46,,,,,,,,,,,,2023-04-07_19h46.49.027,FaceAttractiveness,2022.2.5,145.7441258163273,
treatment,0% Never,100% Always,images\ NASALTIP_CFD_LM_203_026_N.png,0,0,0,0,4,10,390,71,,,,,,,,,,,,2023-04-07_19h46.49.027,FaceAttractiveness,2022.2.5,145.7441258163273,
treatment,0% Never,100% Always,images\FOREHEAD_CFD_BM_234_172_N.png,0,0,0,0,4,11,391,11,,,,,,,,,,,,2023-04-07_19h46.49.027,FaceAttractiveness,2022.2.5,145.7441258163273,
treatment,0% Never,100% Always,images\ LCHEEK_CFD_BF_224_002_N.png,0,0,0,0,4,12,392,28,,,,,,,,,,,,2023-04-07_19h46.49.027,FaceAttractiveness,2022.2.5,145.7441258163273,
treatment,0% Never,100% Always,images\ LIP_CFD_LM_203_026_N.png,0,0,0,0,4,13,393,52,,,,,,,,,,,,2023-04-07_19h46.49.027,FaceAttractiveness,2022.2.5,145.7441258163273,
treatment,0% Never,100% Always,images\ LIP_CFD_WF_200_099_N.png,0,0,0,0,4,14,394,54,,,,,,,,,,,,2023-04-07_19h46.49.027,FaceAttractiveness,2022.2.5,145.7441258163273,
treatment,0% Never,100% Always,images\ LIP_CFD_WM_212_097_N.png,0,0,0,0,4,15,395,56,,,,,,,,,,,,2023-04-07_19h46.49.027,FaceAttractiveness,2022.2.5,145.7441258163273,
treatment,0% Never,100% Always,images\FOREHEAD_006_M_F_N_A.png,0,0,0,0,4,16,396,0,,,,,,,,,,,,2023-04-07_19h46.49.027,FaceAttractiveness,2022.2.5,145.7441258163273,
treatment,0% Never,100% Always,images\ NASALTIP_CFD_BF_214_308_N.png,0,0,0,0,4,17,397,65,,,,,,,,,,,,2023-04-07_19h46.49.027,FaceAttractiveness,2022.2.5,145.7441258163273,
treatment,0% Never,100% Always,images\ LIP_087_M_M_N_A.png,0,0,0,0,4,18,398,40,,,,,,,,,,,,2023-04-07_19h46.49.027,FaceAttractiveness,2022.2.5,145.7441258163273,
treatment,0% Never,100% Always,images\FOREHEAD_CFD_LM_201_057_N.png,0,0,0,0,4,19,399,13,,,,,,,,,,,,2023-04-07_19h46.49.027,FaceAttractiveness,2022.2.5,145.7441258163273,
treatment,0% Never,100% Always,"images\ LIP_CFD_WF_002_004_N.png
",0,0,0,0,4,20,400,53,,,,,,,,,,,,2023-04-07_19h46.49.027,FaceAttractiveness,2022.2.5,145.7441258163273,
treatment,0% Never,100% Always,images\ RCHEEK_CFD_BF_224_002_N.png,0,0,0,0,4,21,401,85,,,,,,,,,,,,2023-04-07_19h46.49.027,FaceAttractiveness,2022.2.5,145.7441258163273,
treatment,0% Never,100% Always,"images\ NASALTIP_CFD_AM_233_236_N.png
",0,0,0,0,4,22,402,64,,,,,,,,,,,,2023-04-07_19h46.49.027,FaceAttractiveness,2022.2.5,145.7441258163273,
treatment,0% Never,100% Always,images\ LCHEEK_CFD_AF_237_223_N.png,0,0,0,0,4,23,403,24,,,,,,,,,,,,2023-04-07_19h46.49.027,FaceAttractiveness,2022.2.5,145.7441258163273,
treatment,0% Never,100% Always,images\ LIP_CFD_LM_201_057_N.png,0,0,0,0,4,24,404,51,,,,,,,,,,,,2023-04-07_19h46.49.027,FaceAttractiveness,2022.2.5,145.7441258163273,
treatment,0% Never,100% Always,"images\ LIP_CFD_BM_234_172_N.png
",0,0,0,0,4,25,405,49,,,,,,,,,,,,2023-04-07_19h46.49.027,FaceAttractiveness,2022.2.5,145.7441258163273,
treatment,0% Never,100% Always,"images\ NASALTIP_136_M_M_N_A.png
",0,0,0,0,4,26,406,60,,,,,,,,,,,,2023-04-07_19h46.49.027,FaceAttractiveness,2022.2.5,145.7441258163273,
treatment,0% Never,100% Always,images\ LCHEEK_CFD_AF_245_143_N.png,0,0,0,0,4,27,407,25,,,,,,,,,,,,2023-04-07_19h46.49.027,FaceAttractiveness,2022.2.5,145.7441258163273,
treatment,0% Never,100% Always,images\ LCHEEK_CFD_WF_200_099_N.png,0,0,0,0,4,28,408,35,,,,,,,,,,,,2023-04-07_19h46.49.027,FaceAttractiveness,2022.2.5,145.7441258163273,
treatment,0% Never,100% Always,images\FOREHEAD_CFD_AM_233_236_N.png,0,0,0,0,4,29,409,7,,,,,,,,,,,,2023-04-07_19h46.49.027,FaceAttractiveness,2022.2.5,145.7441258163273,
treatment,0% Never,100% Always,images\ LCHEEK_CFD_BF_214_308_N.png,0,0,0,0,4,30,410,27,,,,,,,,,,,,2023-04-07_19h46.49.027,FaceAttractiveness,2022.2.5,145.7441258163273,
treatment,0% Never,100% Always,images\FOREHEAD_CFD_WM_212_097_N.png,0,0,0,0,4,31,411,18,,,,,,,,,,,,2023-04-07_19h46.49.027,FaceAttractiveness,2022.2.5,145.7441258163273,
treatment,0% Never,100% Always,images\ RCHEEK_006_M_F_N_A.png,0,0,0,0,4,32,412,76,,,,,,,,,,,,2023-04-07_19h46.49.027,FaceAttractiveness,2022.2.5,145.7441258163273,
treatment,0% Never,100% Always,images\ LCHEEK_CFD_WF_250_167_N.png,0,0,0,0,4,33,413,36,,,,,,,,,,,,2023-04-07_19h46.49.027,FaceAttractiveness,2022.2.5,145.7441258163273,
treatment,0% Never,100% Always,images\ RCHEEK_CFD_WM_212_097_N.png,0,0,0,0,4,34,414,94,,,,,,,,,,,,2023-04-07_19h46.49.027,FaceAttractiveness,2022.2.5,145.7441258163273,
treatment,0% Never,100% Always,images\FOREHEAD_CFD_BM_213_134_N.png,0,0,0,0,4,35,415,10,,,,,,,,,,,,2023-04-07_19h46.49.027,FaceAttractiveness,2022.2.5,145.7441258163273,
treatment,0% Never,100% Always,images\ LCHEEK_CFD_LM_201_057_N.png,0,0,0,0,4,36,416,32,,,,,,,,,,,,2023-04-07_19h46.49.027,FaceAttractiveness,2022.2.5,145.7441258163273,
treatment,0% Never,100% Always,images\FOREHEAD_087_M_M_N_A.png,0,0,0,0,4,37,417,2,,,,,,,,,,,,2023-04-07_19h46.49.027,FaceAttractiveness,2022.2.5,145.7441258163273,
treatment,0% Never,100% Always,images\ RCHEEK_035_M_F_N_A.png,0,0,0,0,4,38,418,77,,,,,,,,,,,,2023-04-07_19h46.49.027,FaceAttractiveness,2022.2.5,145.7441258163273,
treatment,0% Never,100% Always,images\ LCHEEK_CFD_AF_231_357_N.png,0,0,0,0,4,39,419,23,,,,,,,,,,,,2023-04-07_19h46.49.027,FaceAttractiveness,2022.2.5,145.7441258163273,
treatment,0% Never,100% Always,images\ LCHEEK_006_M_F_N_A.png,0,0,0,0,4,40,420,19,,,,,,,,,,,,2023-04-07_19h46.49.027,FaceAttractiveness,2022.2.5,145.7441258163273,
treatment,0% Never,100% Always,images\ NASALTIP_CFD_WF_250_167_N.png,0,0,0,0,4,41,421,74,,,,,,,,,,,,2023-04-07_19h46.49.027,FaceAttractiveness,2022.2.5,145.7441258163273,
treatment,0% Never,100% Always,images\ NASALTIP_CFD_AF_245_143_N.png,0,0,0,0,4,42,422,63,,,,,,,,,,,,2023-04-07_19h46.49.027,FaceAttractiveness,2022.2.5,145.7441258163273,
treatment,0% Never,100% Always,images\ RCHEEK_CFD_BF_214_308_N.png,0,0,0,0,4,43,423,84,,,,,,,,,,,,2023-04-07_19h46.49.027,FaceAttractiveness,2022.2.5,145.7441258163273,
treatment,0% Never,100% Always,images\FOREHEAD_136_M_M_N_A.png,0,0,0,0,4,44,424,3,,,,,,,,,,,,2023-04-07_19h46.49.027,FaceAttractiveness,2022.2.5,145.7441258163273,
treatment,0% Never,100% Always,"images\ RCHEEK_136_M_M_N_A.png
",0,0,0,0,4,45,425,79,,,,,,,,,,,,2023-04-07_19h46.49.027,FaceAttractiveness,2022.2.5,145.7441258163273,
treatment,0% Never,100% Always,"images\ RCHEEK_CFD_AM_233_236_N.png
",0,0,0,0,4,46,426,83,,,,,,,,,,,,2023-04-07_19h46.49.027,FaceAttractiveness,2022.2.5,145.7441258163273,
treatment,0% Never,100% Always,images\ NASALTIP_CFD_WM_212_097_N.png,0,0,0,0,4,47,427,75,,,,,,,,,,,,2023-04-07_19h46.49.027,FaceAttractiveness,2022.2.5,145.7441258163273,
treatment,0% Never,100% Always,images\FOREHEAD_CFD_BF_224_002_N.png,0,0,0,0,4,48,428,9,,,,,,,,,,,,2023-04-07_19h46.49.027,FaceAttractiveness,2022.2.5,145.7441258163273,
treatment,0% Never,100% Always,"images\ NASALTIP_CFD_BM_234_172_N.png
",0,0,0,0,4,49,429,68,,,,,,,,,,,,2023-04-07_19h46.49.027,FaceAttractiveness,2022.2.5,145.7441258163273,
treatment,0% Never,100% Always,images\FOREHEAD_CFD_LF_224_176_N.png,0,0,0,0,4,50,430,12,,,,,,,,,,,,2023-04-07_19h46.49.027,FaceAttractiveness,2022.2.5,145.7441258163273,
treatment,0% Never,100% Always,images\FOREHEAD_CFD_WF_250_167_N.png,0,0,0,0,4,51,431,17,,,,,,,,,,,,2023-04-07_19h46.49.027,FaceAttractiveness,2022.2.5,145.7441258163273,
treatment,0% Never,100% Always,images\ LCHEEK_CFD_LM_203_026_N.png,0,0,0,0,4,52,432,33,,,,,,,,,,,,2023-04-07_19h46.49.027,FaceAttractiveness,2022.2.5,145.7441258163273,
treatment,0% Never,100% Always,images\ RCHEEK_CFD_LM_201_057_N.png,0,0,0,0,4,53,433,89,,,,,,,,,,,,2023-04-07_19h46.49.027,FaceAttractiveness,2022.2.5,145.7441258163273,
treatment,0% Never,100% Always,"images\ LIP_CFD_AM_233_236_N.png
",0,0,0,0,4,54,434,45,,,,,,,,,,,,2023-04-07_19h46.49.027,FaceAttractiveness,2022.2.5,145.7441258163273,
treatment,0% Never,100% Always,images\ RCHEEK_087_M_M_N_A.png,0,0,0,0,4,55,435,78,,,,,,,,,,,,2023-04-07_19h46.49.027,FaceAttractiveness,2022.2.5,145.7441258163273,
treatment,0% Never,100% Always,images\ NASALTIP_CFD_WF_200_099_N.png,0,0,0,0,4,56,436,73,,,,,,,,,,,,2023-04-07_19h46.49.027,FaceAttractiveness,2022.2.5,145.7441258163273,
treatment,0% Never,100% Always,images\ NASALTIP_CFD_AF_237_223_N.png,0,0,0,0,4,57,437,62,,,,,,,,,,,,2023-04-07_19h46.49.027,FaceAttractiveness,2022.2.5,145.7441258163273,
treatment,0% Never,100% Always,images\ NASALTIP_CFD_LM_201_057_N.png,0,0,0,0,4,58,438,70,,,,,,,,,,,,2023-04-07_19h46.49.027,FaceAttractiveness,2022.2.5,145.7441258163273,
treatment,0% Never,100% Always,images\ LCHEEK_CFD_WM_212_097_N.png,0,0,0,0,4,59,439,37,,,,,,,,,,,,2023-04-07_19h46.49.027,FaceAttractiveness,2022.2.5,145.7441258163273,
treatment,0% Never,100% Always,images\ LIP_035_M_F_N_A.png,0,0,0,0,4,60,440,39,,,,,,,,,,,,2023-04-07_19h46.49.027,FaceAttractiveness,2022.2.5,145.7441258163273,
treatment,0% Never,100% Always,images\ LCHEEK_035_M_F_N_A.png,0,0,0,0,4,61,441,20,,,,,,,,,,,,2023-04-07_19h46.49.027,FaceAttractiveness,2022.2.5,145.7441258163273,
treatment,0% Never,100% Always,images\ RCHEEK_CFD_AF_245_143_N.png,0,0,0,0,4,62,442,82,,,,,,,,,,,,2023-04-07_19h46.49.027,FaceAttractiveness,2022.2.5,145.7441258163273,
treatment,0% Never,100% Always,images\ RCHEEK_CFD_WF_250_167_N.png,0,0,0,0,4,63,443,93,,,,,,,,,,,,2023-04-07_19h46.49.027,FaceAttractiveness,2022.2.5,145.7441258163273,
treatment,0% Never,100% Always,"images\ NASALTIP_CFD_WF_002_004_N.png
",0,0,0,0,4,64,444,72,,,,,,,,,,,,2023-04-07_19h46.49.027,FaceAttractiveness,2022.2.5,145.7441258163273,
treatment,0% Never,100% Always,images\FOREHEAD_CFD_LM_203_026_N.png,0,0,0,0,4,65,445,14,,,,,,,,,,,,2023-04-07_19h46.49.027,FaceAttractiveness,2022.2.5,145.7441258163273,
treatment,0% Never,100% Always,images\ RCHEEK_CFD_AF_231_357_N.png,0,0,0,0,4,66,446,80,,,,,,,,,,,,2023-04-07_19h46.49.027,FaceAttractiveness,2022.2.5,145.7441258163273,
treatment,0% Never,100% Always,images\ NASALTIP_CFD_LF_224_176_N.png,0,0,0,0,4,67,447,69,,,,,,,,,,,,2023-04-07_19h46.49.027,FaceAttractiveness,2022.2.5,145.7441258163273,
treatment,0% Never,100% Always,images\FOREHEAD_CFD_AF_237_223_N.png,0,0,0,0,4,68,448,5,,,,,,,,,,,,2023-04-07_19h46.49.027,FaceAttractiveness,2022.2.5,145.7441258163273,
treatment,0% Never,100% Always,"images\ LIP_136_M_M_N_A.png
",0,0,0,0,4,69,449,41,,,,,,,,,,,,2023-04-07_19h46.49.027,FaceAttractiveness,2022.2.5,145.7441258163273,
treatment,0% Never,100% Always,images\FOREHEAD_CFD_AF_231_357_N.png,0,0,0,0,4,70,450,4,,,,,,,,,,,,2023-04-07_19h46.49.027,FaceAttractiveness,2022.2.5,145.7441258163273,
treatment,0% Never,100% Always,images\FOREHEAD_CFD_WF_002_004_N.png,0,0,0,0,4,71,451,15,,,,,,,,,,,,2023-04-07_19h46.49.027,FaceAttractiveness,2022.2.5,145.7441258163273,
treatment,0% Never,100% Always,images\ NASALTIP_CFD_BF_224_002_N.png,0,0,0,0,4,72,452,66,,,,,,,,,,,,2023-04-07_19h46.49.027,FaceAttractiveness,2022.2.5,145.7441258163273,
treatment,0% Never,100% Always,images\ LIP_CFD_AF_245_143_N.png,0,0,0,0,4,73,453,44,,,,,,,,,,,,2023-04-07_19h46.49.027,FaceAttractiveness,2022.2.5,145.7441258163273,
treatment,0% Never,100% Always,images\ NASALTIP_087_M_M_N_A.png,0,0,0,0,4,74,454,59,,,,,,,,,,,,2023-04-07_19h46.49.027,FaceAttractiveness,2022.2.5,145.7441258163273,
treatment,0% Never,100% Always,images\ NASALTIP_035_M_F_N_A.png,0,0,0,0,4,75,455,58,,,,,,,,,,,,2023-04-07_19h46.49.027,FaceAttractiveness,2022.2.5,145.7441258163273,
treatment,0% Never,100% Always,images\ LIP_CFD_BM_213_134_N.png,0,0,0,0,4,76,456,48,,,,,,,,,,,,2023-04-07_19h46.49.027,FaceAttractiveness,2022.2.5,145.7441258163273,
treatment,0% Never,100% Always,images\ LCHEEK_CFD_LF_224_176_N.png,0,0,0,0,4,77,457,31,,,,,,,,,,,,2023-04-07_19h46.49.027,FaceAttractiveness,2022.2.5,145.7441258163273,
treatment,0% Never,100% Always,images\FOREHEAD_CFD_AF_245_143_N.png,0,0,0,0,4,78,458,6,,,,,,,,,,,,2023-04-07_19h46.49.027,FaceAttractiveness,2022.2.5,145.7441258163273,
treatment,0% Never,100% Always,images\ RCHEEK_CFD_LM_203_026_N.png,0,0,0,0,4,79,459,90,,,,,,,,,,,,2023-04-07_19h46.49.027,FaceAttractiveness,2022.2.5,145.7441258163273,
treatment,0% Never,100% Always,"images\ LCHEEK_136_M_M_N_A.png
",0,0,0,0,4,80,460,22,,,,,,,,,,,,2023-04-07_19h46.49.027,FaceAttractiveness,2022.2.5,145.7441258163273,
treatment,0% Never,100% Always,images\FOREHEAD_035_M_F_N_A.png,0,0,0,0,4,81,461,1,,,,,,,,,,,,2023-04-07_19h46.49.027,FaceAttractiveness,2022.2.5,145.7441258163273,
treatment,0% Never,100% Always,"images\ LCHEEK_CFD_WF_002_004_N.png
",0,0,0,0,4,82,462,34,,,,,,,,,,,,2023-04-07_19h46.49.027,FaceAttractiveness,2022.2.5,145.7441258163273,
treatment,0% Never,100% Always,images\ LIP_CFD_WF_250_167_N.png,0,0,0,0,4,83,463,55,,,,,,,,,,,,2023-04-07_19h46.49.027,FaceAttractiveness,2022.2.5,145.7441258163273,
treatment,0% Never,100% Always,images\ LIP_CFD_BF_224_002_N.png,0,0,0,0,4,84,464,47,,,,,,,,,,,,2023-04-07_19h46.49.027,FaceAttractiveness,2022.2.5,145.7441258163273,
treatment,0% Never,100% Always,"images\ LCHEEK_CFD_BM_234_172_N.png
",0,0,0,0,4,85,465,30,,,,,,,,,,,,2023-04-07_19h46.49.027,FaceAttractiveness,2022.2.5,145.7441258163273,
treatment,0% Never,100% Always,images\FOREHEAD_CFD_BF_214_308_N.png,0,0,0,0,4,86,466,8,,,,,,,,,,,,2023-04-07_19h46.49.027,FaceAttractiveness,2022.2.5,145.7441258163273,
treatment,0% Never,100% Always,images\ LCHEEK_CFD_BM_213_134_N.png,0,0,0,0,4,87,467,29,,,,,,,,,,,,2023-04-07_19h46.49.027,FaceAttractiveness,2022.2.5,145.7441258163273,
treatment,0% Never,100% Always,images\ LIP_CFD_AF_237_223_N.png,0,0,0,0,4,88,468,43,,,,,,,,,,,,2023-04-07_19h46.49.027,FaceAttractiveness,2022.2.5,145.7441258163273,
treatment,0% Never,100% Always,images\ NASALTIP_CFD_AF_231_357_N.png,0,0,0,0,4,89,469,61,,,,,,,,,,,,2023-04-07_19h46.49.027,FaceAttractiveness,2022.2.5,145.7441258163273,
treatment,0% Never,100% Always,images\ LIP_006_M_F_N_A.png,0,0,0,0,4,90,470,38,,,,,,,,,,,,2023-04-07_19h46.49.027,FaceAttractiveness,2022.2.5,145.7441258163273,
treatment,0% Never,100% Always,"images\ LCHEEK_CFD_AM_233_236_N.png
",0,0,0,0,4,91,471,26,,,,,,,,,,,,2023-04-07_19h46.49.027,FaceAttractiveness,2022.2.5,145.7441258163273,
treatment,0% Never,100% Always,images\ LIP_CFD_LF_224_176_N.png,0,0,0,0,4,92,472,50,,,,,,,,,,,,2023-04-07_19h46.49.027,FaceAttractiveness,2022.2.5,145.7441258163273,
treatment,0% Never,100% Always,images\ LIP_CFD_AF_231_357_N.png,0,0,0,0,4,93,473,42,,,,,,,,,,,,2023-04-07_19h46.49.027,FaceAttractiveness,2022.2.5,145.7441258163273,
treatment,0% Never,100% Always,"images\ RCHEEK_CFD_WF_002_004_N.png
",0,0,0,0,4,94,474,91,,,,,,,,,,,,2023-04-07_19h46.49.027,FaceAttractiveness,2022.2.5,145.7441258163273,
treatment,0% Never,100% Always,"images\ RCHEEK_CFD_AM_233_236_N.png
",0,0,0,0,5,0,475,83,,,,,,,,,,,,2023-04-07_19h46.49.027,FaceAttractiveness,2022.2.5,145.7441258163273,
treatment,0% Never,100% Always,images\ LIP_CFD_BM_213_134_N.png,0,0,0,0,5,1,476,48,,,,,,,,,,,,2023-04-07_19h46.49.027,FaceAttractiveness,2022.2.5,145.7441258163273,
treatment,0% Never,100% Always,images\FOREHEAD_136_M_M_N_A.png,0,0,0,0,5,2,477,3,,,,,,,,,,,,2023-04-07_19h46.49.027,FaceAttractiveness,2022.2.5,145.7441258163273,
treatment,0% Never,100% Always,images\FOREHEAD_CFD_LM_201_057_N.png,0,0,0,0,5,3,478,13,,,,,,,,,,,,2023-04-07_19h46.49.027,FaceAttractiveness,2022.2.5,145.7441258163273,
treatment,0% Never,100% Always,images\ NASALTIP_CFD_AF_231_357_N.png,0,0,0,0,5,4,479,61,,,,,,,,,,,,2023-04-07_19h46.49.027,FaceAttractiveness,2022.2.5,145.7441258163273,
treatment,0% Never,100% Always,images\ LIP_CFD_BF_224_002_N.png,0,0,0,0,5,5,480,47,,,,,,,,,,,,2023-04-07_19h46.49.027,FaceAttractiveness,2022.2.5,145.7441258163273,
treatment,0% Never,100% Always,images\FOREHEAD_035_M_F_N_A.png,0,0,0,0,5,6,481,1,,,,,,,,,,,,2023-04-07_19h46.49.027,FaceAttractiveness,2022.2.5,145.7441258163273,
treatment,0% Never,100% Always,"images\ NASALTIP_CFD_WF_002_004_N.png
",0,0,0,0,5,7,482,72,,,,,,,,,,,,2023-04-07_19h46.49.027,FaceAttractiveness,2022.2.5,145.7441258163273,
treatment,0% Never,100% Always,images\ LCHEEK_CFD_LF_224_176_N.png,0,0,0,0,5,8,483,31,,,,,,,,,,,,2023-04-07_19h46.49.027,FaceAttractiveness,2022.2.5,145.7441258163273,
treatment,0% Never,100% Always,images\FOREHEAD_CFD_AM_233_236_N.png,0,0,0,0,5,9,484,7,,,,,,,,,,,,2023-04-07_19h46.49.027,FaceAttractiveness,2022.2.5,145.7441258163273,
treatment,0% Never,100% Always,images\ NASALTIP_CFD_LM_203_026_N.png,0,0,0,0,5,10,485,71,,,,,,,,,,,,2023-04-07_19h46.49.027,FaceAttractiveness,2022.2.5,145.7441258163273,
treatment,0% Never,100% Always,images\ RCHEEK_CFD_BF_214_308_N.png,0,0,0,0,5,11,486,84,,,,,,,,,,,,2023-04-07_19h46.49.027,FaceAttractiveness,2022.2.5,145.7441258163273,
treatment,0% Never,100% Always,images\ NASALTIP_035_M_F_N_A.png,0,0,0,0,5,12,487,58,,,,,,,,,,,,2023-04-07_19h46.49.027,FaceAttractiveness,2022.2.5,145.7441258163273,
treatment,0% Never,100% Always,"images\ NASALTIP_136_M_M_N_A.png
",0,0,0,0,5,13,488,60,,,,,,,,,,,,2023-04-07_19h46.49.027,FaceAttractiveness,2022.2.5,145.7441258163273,
treatment,0% Never,100% Always,images\FOREHEAD_087_M_M_N_A.png,0,0,0,0,5,14,489,2,,,,,,,,,,,,2023-04-07_19h46.49.027,FaceAttractiveness,2022.2.5,145.7441258163273,
treatment,0% Never,100% Always,images\ RCHEEK_CFD_BM_213_134_N.png,0,0,0,0,5,15,490,86,,,,,,,,,,,,2023-04-07_19h46.49.027,FaceAttractiveness,2022.2.5,145.7441258163273,
treatment,0% Never,100% Always,"images\ RCHEEK_136_M_M_N_A.png
",0,0,0,0,5,16,491,79,,,,,,,,,,,,2023-04-07_19h46.49.027,FaceAttractiveness,2022.2.5,145.7441258163273,
treatment,0% Never,100% Always,images\ LIP_CFD_AF_231_357_N.png,0,0,0,0,5,17,492,42,,,,,,,,,,,,2023-04-07_19h46.49.027,FaceAttractiveness,2022.2.5,145.7441258163273,
treatment,0% Never,100% Always,images\ LIP_CFD_LM_203_026_N.png,0,0,0,0,5,18,493,52,,,,,,,,,,,,2023-04-07_19h46.49.027,FaceAttractiveness,2022.2.5,145.7441258163273,
treatment,0% Never,100% Always,images\ RCHEEK_CFD_LF_224_176_N.png,0,0,0,0,5,19,494,88,,,,,,,,,,,,2023-04-07_19h46.49.027,FaceAttractiveness,2022.2.5,145.7441258163273,
treatment,0% Never,100% Always,images\ LCHEEK_CFD_BF_224_002_N.png,0,0,0,0,5,20,495,28,,,,,,,,,,,,2023-04-07_19h46.49.027,FaceAttractiveness,2022.2.5,145.7441258163273,
treatment,0% Never,100% Always,images\ RCHEEK_CFD_WF_250_167_N.png,0,0,0,0,5,21,496,93,,,,,,,,,,,,2023-04-07_19h46.49.027,FaceAttractiveness,2022.2.5,145.7441258163273,
treatment,0% Never,100% Always,images\FOREHEAD_CFD_BM_234_172_N.png,0,0,0,0,5,22,497,11,,,,,,,,,,,,2023-04-07_19h46.49.027,FaceAttractiveness,2022.2.5,145.7441258163273,
treatment,0% Never,100% Always,images\FOREHEAD_006_M_F_N_A.png,0,0,0,0,5,23,498,0,,,,,,,,,,,,2023-04-07_19h46.49.027,FaceAttractiveness,2022.2.5,145.7441258163273,
treatment,0% Never,100% Always,"images\ LCHEEK_136_M_M_N_A.png
",0,0,0,0,5,24,499,22,,,,,,,,,,,,2023-04-07_19h46.49.027,FaceAttractiveness,2022.2.5,145.7441258163273,
treatment,0% Never,100% Always,images\FOREHEAD_CFD_BM_213_134_N.png,0,0,0,0,5,25,500,10,,,,,,,,,,,,2023-04-07_19h46.49.027,FaceAttractiveness,2022.2.5,145.7441258163273,
treatment,0% Never,100% Always,images\ LCHEEK_CFD_BF_214_308_N.png,0,0,0,0,5,26,501,27,,,,,,,,,,,,2023-04-07_19h46.49.027,FaceAttractiveness,2022.2.5,145.7441258163273,
treatment,0% Never,100% Always,images\ NASALTIP_CFD_AF_245_143_N.png,0,0,0,0,5,27,502,63,,,,,,,,,,,,2023-04-07_19h46.49.027,FaceAttractiveness,2022.2.5,145.7441258163273,
treatment,0% Never,100% Always,images\ NASALTIP_CFD_AF_237_223_N.png,0,0,0,0,5,28,503,62,,,,,,,,,,,,2023-04-07_19h46.49.027,FaceAttractiveness,2022.2.5,145.7441258163273,
treatment,0% Never,100% Always,images\ NASALTIP_CFD_WF_250_167_N.png,0,0,0,0,5,29,504,74,,,,,,,,,,,,2023-04-07_19h46.49.027,FaceAttractiveness,2022.2.5,145.7441258163273,
treatment,0% Never,100% Always,images\ RCHEEK_CFD_WM_212_097_N.png,0,0,0,0,5,30,505,94,,,,,,,,,,,,2023-04-07_19h46.49.027,FaceAttractiveness,2022.2.5,145.7441258163273,
treatment,0% Never,100% Always,images\ LCHEEK_CFD_AF_245_143_N.png,0,0,0,0,5,31,506,25,,,,,,,,,,,,2023-04-07_19h46.49.027,FaceAttractiveness,2022.2.5,145.7441258163273,
treatment,0% Never,100% Always,"images\ LIP_CFD_WF_002_004_N.png
",0,0,0,0,5,32,507,53,,,,,,,,,,,,2023-04-07_19h46.49.027,FaceAttractiveness,2022.2.5,145.7441258163273,
treatment,0% Never,100% Always,images\ RCHEEK_CFD_AF_237_223_N.png,0,0,0,0,5,33,508,81,,,,,,,,,,,,2023-04-07_19h46.49.027,FaceAttractiveness,2022.2.5,145.7441258163273,
treatment,0% Never,100% Always,images\ LIP_CFD_WF_250_167_N.png,0,0,0,0,5,34,509,55,,,,,,,,,,,,2023-04-07_19h46.49.027,FaceAttractiveness,2022.2.5,145.7441258163273,
treatment,0% Never,100% Always,images\ LIP_CFD_LM_201_057_N.png,0,0,0,0,5,35,510,51,,,,,,,,,,,,2023-04-07_19h46.49.027,FaceAttractiveness,2022.2.5,145.7441258163273,
treatment,0% Never,100% Always,images\ NASALTIP_CFD_WM_212_097_N.png,0,0,0,0,5,36,511,75,,,,,,,,,,,,2023-04-07_19h46.49.027,FaceAttractiveness,2022.2.5,145.7441258163273,
treatment,0% Never,100% Always,images\ RCHEEK_006_M_F_N_A.png,0,0,0,0,5,37,512,76,,,,,,,,,,,,2023-04-07_19h46.49.027,FaceAttractiveness,2022.2.5,145.7441258163273,
treatment,0% Never,100% Always,images\ LCHEEK_CFD_AF_237_223_N.png,0,0,0,0,5,38,513,24,,,,,,,,,,,,2023-04-07_19h46.49.027,FaceAttractiveness,2022.2.5,145.7441258163273,
treatment,0% Never,100% Always,images\FOREHEAD_CFD_AF_237_223_N.png,0,0,0,0,5,39,514,5,,,,,,,,,,,,2023-04-07_19h46.49.027,FaceAttractiveness,2022.2.5,145.7441258163273,
treatment,0% Never,100% Always,images\ LCHEEK_CFD_WF_250_167_N.png,0,0,0,0,5,40,515,36,,,,,,,,,,,,2023-04-07_19h46.49.027,FaceAttractiveness,2022.2.5,145.7441258163273,
treatment,0% Never,100% Always,images\ LIP_CFD_LF_224_176_N.png,0,0,0,0,5,41,516,50,,,,,,,,,,,,2023-04-07_19h46.49.027,FaceAttractiveness,2022.2.5,145.7441258163273,
treatment,0% Never,100% Always,images\ LCHEEK_087_M_M_N_A.png,0,0,0,0,5,42,517,21,,,,,,,,,,,,2023-04-07_19h46.49.027,FaceAttractiveness,2022.2.5,145.7441258163273,
treatment,0% Never,100% Always,images\ LIP_CFD_AF_237_223_N.png,0,0,0,0,5,43,518,43,,,,,,,,,,,,2023-04-07_19h46.49.027,FaceAttractiveness,2022.2.5,145.7441258163273,
treatment,0% Never,100% Always,images\ NASALTIP_CFD_BF_214_308_N.png,0,0,0,0,5,44,519,65,,,,,,,,,,,,2023-04-07_19h46.49.027,FaceAttractiveness,2022.2.5,145.7441258163273,
treatment,0% Never,100% Always,images\ RCHEEK_CFD_LM_201_057_N.png,0,0,0,0,5,45,520,89,,,,,,,,,,,,2023-04-07_19h46.49.027,FaceAttractiveness,2022.2.5,145.7441258163273,
treatment,0% Never,100% Always,images\ RCHEEK_CFD_AF_245_143_N.png,0,0,0,0,5,46,521,82,,,,,,,,,,,,2023-04-07_19h46.49.027,FaceAttractiveness,2022.2.5,145.7441258163273,
treatment,0% Never,100% Always,"images\ NASALTIP_CFD_BM_234_172_N.png
",0,0,0,0,5,47,522,68,,,,,,,,,,,,2023-04-07_19h46.49.027,FaceAttractiveness,2022.2.5,145.7441258163273,
treatment,0% Never,100% Always,images\ NASALTIP_006_M_F_N_A.png,0,0,0,0,5,48,523,57,,,,,,,,,,,,2023-04-07_19h46.49.027,FaceAttractiveness,2022.2.5,145.7441258163273,
treatment,0% Never,100% Always,images\ LIP_087_M_M_N_A.png,0,0,0,0,5,49,524,40,,,,,,,,,,,,2023-04-07_19h46.49.027,FaceAttractiveness,2022.2.5,145.7441258163273,
treatment,0% Never,100% Always,images\FOREHEAD_CFD_LF_224_176_N.png,0,0,0,0,5,50,525,12,,,,,,,,,,,,2023-04-07_19h46.49.027,FaceAttractiveness,2022.2.5,145.7441258163273,
treatment,0% Never,100% Always,"images\ LCHEEK_CFD_BM_234_172_N.png
",0,0,0,0,5,51,526,30,,,,,,,,,,,,2023-04-07_19h46.49.027,FaceAttractiveness,2022.2.5,145.7441258163273,
treatment,0% Never,100% Always,"images\ LCHEEK_CFD_WF_002_004_N.png
",0,0,0,0,5,52,527,34,,,,,,,,,,,,2023-04-07_19h46.49.027,FaceAttractiveness,2022.2.5,145.7441258163273,
treatment,0% Never,100% Always,images\FOREHEAD_CFD_WF_250_167_N.png,0,0,0,0,5,53,528,17,,,,,,,,,,,,2023-04-07_19h46.49.027,FaceAttractiveness,2022.2.5,145.7441258163273,
treatment,0% Never,100% Always,images\ NASALTIP_CFD_BM_213_134_N.png,0,0,0,0,5,54,529,67,,,,,,,,,,,,2023-04-07_19h46.49.027,FaceAttractiveness,2022.2.5,145.7441258163273,
treatment,0% Never,100% Always,images\FOREHEAD_CFD_BF_224_002_N.png,0,0,0,0,5,55,530,9,,,,,,,,,,,,2023-04-07_19h46.49.027,FaceAttractiveness,2022.2.5,145.7441258163273,
treatment,0% Never,100% Always,images\FOREHEAD_CFD_WF_002_004_N.png,0,0,0,0,5,56,531,15,,,,,,,,,,,,2023-04-07_19h46.49.027,FaceAttractiveness,2022.2.5,145.7441258163273,
treatment,0% Never,100% Always,"images\ LIP_CFD_BM_234_172_N.png
",0,0,0,0,5,57,532,49,,,,,,,,,,,,2023-04-07_19h46.49.027,FaceAttractiveness,2022.2.5,145.7441258163273,
treatment,0% Never,100% Always,images\ LIP_006_M_F_N_A.png,0,0,0,0,5,58,533,38,,,,,,,,,,,,2023-04-07_19h46.49.027,FaceAttractiveness,2022.2.5,145.7441258163273,
treatment,0% Never,100% Always,images\ LIP_CFD_BF_214_308_N.png,0,0,0,0,5,59,534,46,,,,,,,,,,,,2023-04-07_19h46.49.027,FaceAttractiveness,2022.2.5,145.7441258163273,
treatment,0% Never,100% Always,images\ NASALTIP_CFD_BF_224_002_N.png,0,0,0,0,5,60,535,66,,,,,,,,,,,,2023-04-07_19h46.49.027,FaceAttractiveness,2022.2.5,145.7441258163273,
treatment,0% Never,100% Always,images\FOREHEAD_CFD_AF_245_143_N.png,0,0,0,0,5,61,536,6,,,,,,,,,,,,2023-04-07_19h46.49.027,FaceAttractiveness,2022.2.5,145.7441258163273,
treatment,0% Never,100% Always,"images\ RCHEEK_CFD_BM_234_172_N.png
",0,0,0,0,5,62,537,87,,,,,,,,,,,,2023-04-07_19h46.49.027,FaceAttractiveness,2022.2.5,145.7441258163273,
treatment,0% Never,100% Always,images\ LIP_035_M_F_N_A.png,0,0,0,0,5,63,538,39,,,,,,,,,,,,2023-04-07_19h46.49.027,FaceAttractiveness,2022.2.5,145.7441258163273,
treatment,0% Never,100% Always,images\ LCHEEK_CFD_LM_203_026_N.png,0,0,0,0,5,64,539,33,,,,,,,,,,,,2023-04-07_19h46.49.027,FaceAttractiveness,2022.2.5,145.7441258163273,
treatment,0% Never,100% Always,images\FOREHEAD_CFD_AF_231_357_N.png,0,0,0,0,5,65,540,4,,,,,,,,,,,,2023-04-07_19h46.49.027,FaceAttractiveness,2022.2.5,145.7441258163273,
treatment,0% Never,100% Always,images\ RCHEEK_CFD_LM_203_026_N.png,0,0,0,0,5,66,541,90,,,,,,,,,,,,2023-04-07_19h46.49.027,FaceAttractiveness,2022.2.5,145.7441258163273,
treatment,0% Never,100% Always,images\ RCHEEK_CFD_WF_200_099_N.png,0,0,0,0,5,67,542,92,,,,,,,,,,,,2023-04-07_19h46.49.027,FaceAttractiveness,2022.2.5,145.7441258163273,
treatment,0% Never,100% Always,images\ LCHEEK_CFD_WM_212_097_N.png,0,0,0,0,5,68,543,37,,,,,,,,,,,,2023-04-07_19h46.49.027,FaceAttractiveness,2022.2.5,145.7441258163273,
treatment,0% Never,100% Always,images\ NASALTIP_087_M_M_N_A.png,0,0,0,0,5,69,544,59,,,,,,,,,,,,2023-04-07_19h46.49.027,FaceAttractiveness,2022.2.5,145.7441258163273,
treatment,0% Never,100% Always,images\ RCHEEK_CFD_BF_224_002_N.png,0,0,0,0,5,70,545,85,,,,,,,,,,,,2023-04-07_19h46.49.027,FaceAttractiveness,2022.2.5,145.7441258163273,
treatment,0% Never,100% Always,images\FOREHEAD_CFD_LM_203_026_N.png,0,0,0,0,5,71,546,14,,,,,,,,,,,,2023-04-07_19h46.49.027,FaceAttractiveness,2022.2.5,145.7441258163273,
treatment,0% Never,100% Always,images\ LCHEEK_CFD_LM_201_057_N.png,0,0,0,0,5,72,547,32,,,,,,,,,,,,2023-04-07_19h46.49.027,FaceAttractiveness,2022.2.5,145.7441258163273,
treatment,0% Never,100% Always,images\FOREHEAD_CFD_BF_214_308_N.png,0,0,0,0,5,73,548,8,,,,,,,,,,,,2023-04-07_19h46.49.027,FaceAttractiveness,2022.2.5,145.7441258163273,
treatment,0% Never,100% Always,images\ LCHEEK_CFD_AF_231_357_N.png,0,0,0,0,5,74,549,23,,,,,,,,,,,,2023-04-07_19h46.49.027,FaceAttractiveness,2022.2.5,145.7441258163273,
treatment,0% Never,100% Always,images\ LCHEEK_CFD_WF_200_099_N.png,0,0,0,0,5,75,550,35,,,,,,,,,,,,2023-04-07_19h46.49.027,FaceAttractiveness,2022.2.5,145.7441258163273,
treatment,0% Never,100% Always,images\ NASALTIP_CFD_WF_200_099_N.png,0,0,0,0,5,76,551,73,,,,,,,,,,,,2023-04-07_19h46.49.027,FaceAttractiveness,2022.2.5,145.7441258163273,
treatment,0% Never,100% Always,"images\ RCHEEK_CFD_WF_002_004_N.png
",0,0,0,0,5,77,552,91,,,,,,,,,,,,2023-04-07_19h46.49.027,FaceAttractiveness,2022.2.5,145.7441258163273,
treatment,0% Never,100% Always,images\ LIP_CFD_WF_200_099_N.png,0,0,0,0,5,78,553,54,,,,,,,,,,,,2023-04-07_19h46.49.027,FaceAttractiveness,2022.2.5,145.7441258163273,
treatment,0% Never,100% Always,"images\ LIP_136_M_M_N_A.png
",0,0,0,0,5,79,554,41,,,,,,,,,,,,2023-04-07_19h46.49.027,FaceAttractiveness,2022.2.5,145.7441258163273,
treatment,0% Never,100% Always,images\ NASALTIP_CFD_LF_224_176_N.png,0,0,0,0,5,80,555,69,,,,,,,,,,,,2023-04-07_19h46.49.027,FaceAttractiveness,2022.2.5,145.7441258163273,
treatment,0% Never,100% Always,images\ NASALTIP_CFD_LM_201_057_N.png,0,0,0,0,5,81,556,70,,,,,,,,,,,,2023-04-07_19h46.49.027,FaceAttractiveness,2022.2.5,145.7441258163273,
treatment,0% Never,100% Always,images\ RCHEEK_087_M_M_N_A.png,0,0,0,0,5,82,557,78,,,,,,,,,,,,2023-04-07_19h46.49.027,FaceAttractiveness,2022.2.5,145.7441258163273,
treatment,0% Never,100% Always,"images\ NASALTIP_CFD_AM_233_236_N.png
",0,0,0,0,5,83,558,64,,,,,,,,,,,,2023-04-07_19h46.49.027,FaceAttractiveness,2022.2.5,145.7441258163273,
treatment,0% Never,100% Always,"images\ LIP_CFD_AM_233_236_N.png
",0,0,0,0,5,84,559,45,,,,,,,,,,,,2023-04-07_19h46.49.027,FaceAttractiveness,2022.2.5,145.7441258163273,
treatment,0% Never,100% Always,images\ LCHEEK_006_M_F_N_A.png,0,0,0,0,5,85,560,19,,,,,,,,,,,,2023-04-07_19h46.49.027,FaceAttractiveness,2022.2.5,145.7441258163273,
treatment,0% Never,100% Always,images\FOREHEAD_CFD_WM_212_097_N.png,0,0,0,0,5,86,561,18,,,,,,,,,,,,2023-04-07_19h46.49.027,FaceAttractiveness,2022.2.5,145.7441258163273,
treatment,0% Never,100% Always,images\ RCHEEK_CFD_AF_231_357_N.png,0,0,0,0,5,87,562,80,,,,,,,,,,,,2023-04-07_19h46.49.027,FaceAttractiveness,2022.2.5,145.7441258163273,
treatment,0% Never,100% Always,images\ RCHEEK_035_M_F_N_A.png,0,0,0,0,5,88,563,77,,,,,,,,,,,,2023-04-07_19h46.49.027,FaceAttractiveness,2022.2.5,145.7441258163273,
treatment,0% Never,100% Always,images\ LCHEEK_035_M_F_N_A.png,0,0,0,0,5,89,564,20,,,,,,,,,,,,2023-04-07_19h46.49.027,FaceAttractiveness,2022.2.5,145.7441258163273,
treatment,0% Never,100% Always,images\ LIP_CFD_AF_245_143_N.png,0,0,0,0,5,90,565,44,,,,,,,,,,,,2023-04-07_19h46.49.027,FaceAttractiveness,2022.2.5,145.7441258163273,
treatment,0% Never,100% Always,images\FOREHEAD_CFD_WF_200_099_N.png,0,0,0,0,5,91,566,16,,,,,,,,,,,,2023-04-07_19h46.49.027,FaceAttractiveness,2022.2.5,145.7441258163273,
treatment,0% Never,100% Always,"images\ LCHEEK_CFD_AM_233_236_N.png
",0,0,0,0,5,92,567,26,,,,,,,,,,,,2023-04-07_19h46.49.027,FaceAttractiveness,2022.2.5,145.7441258163273,
treatment,0% Never,100% Always,images\ LCHEEK_CFD_BM_213_134_N.png,0,0,0,0,5,93,568,29,,,,,,,,,,,,2023-04-07_19h46.49.027,FaceAttractiveness,2022.2.5,145.7441258163273,
treatment,0% Never,100% Always,images\ LIP_CFD_WM_212_097_N.png,0,0,0,0,5,94,569,56,,,,,,,,,,,,2023-04-07_19h46.49.027,FaceAttractiveness,2022.2.5,145.7441258163273,
treatment,0% Never,100% Always,"images\ RCHEEK_CFD_WF_002_004_N.png
",0,0,0,0,6,0,570,91,,,,,,,,,,,,2023-04-07_19h46.49.027,FaceAttractiveness,2022.2.5,145.7441258163273,
treatment,0% Never,100% Always,images\ RCHEEK_035_M_F_N_A.png,0,0,0,0,6,1,571,77,,,,,,,,,,,,2023-04-07_19h46.49.027,FaceAttractiveness,2022.2.5,145.7441258163273,
treatment,0% Never,100% Always,images\ NASALTIP_CFD_LM_203_026_N.png,0,0,0,0,6,2,572,71,,,,,,,,,,,,2023-04-07_19h46.49.027,FaceAttractiveness,2022.2.5,145.7441258163273,
treatment,0% Never,100% Always,images\FOREHEAD_CFD_AF_237_223_N.png,0,0,0,0,6,3,573,5,,,,,,,,,,,,2023-04-07_19h46.49.027,FaceAttractiveness,2022.2.5,145.7441258163273,
treatment,0% Never,100% Always,images\ RCHEEK_CFD_AF_245_143_N.png,0,0,0,0,6,4,574,82,,,,,,,,,,,,2023-04-07_19h46.49.027,FaceAttractiveness,2022.2.5,145.7441258163273,
treatment,0% Never,100% Always,images\ LIP_035_M_F_N_A.png,0,0,0,0,6,5,575,39,,,,,,,,,,,,2023-04-07_19h46.49.027,FaceAttractiveness,2022.2.5,145.7441258163273,
treatment,0% Never,100% Always,images\ LIP_CFD_AF_237_223_N.png,0,0,0,0,6,6,576,43,,,,,,,,,,,,2023-04-07_19h46.49.027,FaceAttractiveness,2022.2.5,145.7441258163273,
treatment,0% Never,100% Always,images\FOREHEAD_CFD_LM_201_057_N.png,0,0,0,0,6,7,577,13,,,,,,,,,,,,2023-04-07_19h46.49.027,FaceAttractiveness,2022.2.5,145.7441258163273,
treatment,0% Never,100% Always,images\ RCHEEK_CFD_AF_237_223_N.png,0,0,0,0,6,8,578,81,,,,,,,,,,,,2023-04-07_19h46.49.027,FaceAttractiveness,2022.2.5,145.7441258163273,
treatment,0% Never,100% Always,images\FOREHEAD_CFD_BM_234_172_N.png,0,0,0,0,6,9,579,11,,,,,,,,,,,,2023-04-07_19h46.49.027,FaceAttractiveness,2022.2.5,145.7441258163273,
treatment,0% Never,100% Always,"images\ NASALTIP_CFD_AM_233_236_N.png
",0,0,0,0,6,10,580,64,,,,,,,,,,,,2023-04-07_19h46.49.027,FaceAttractiveness,2022.2.5,145.7441258163273,
treatment,0% Never,100% Always,images\FOREHEAD_087_M_M_N_A.png,0,0,0,0,6,11,581,2,,,,,,,,,,,,2023-04-07_19h46.49.027,FaceAttractiveness,2022.2.5,145.7441258163273,
treatment,0% Never,100% Always,images\ LCHEEK_CFD_BF_224_002_N.png,0,0,0,0,6,12,582,28,,,,,,,,,,,,2023-04-07_19h46.49.027,FaceAttractiveness,2022.2.5,145.7441258163273,
treatment,0% Never,100% Always,images\ LCHEEK_CFD_LM_201_057_N.png,0,0,0,0,6,13,583,32,,,,,,,,,,,,2023-04-07_19h46.49.027,FaceAttractiveness,2022.2.5,145.7441258163273,
treatment,0% Never,100% Always,"images\ LCHEEK_CFD_AM_233_236_N.png
",0,0,0,0,6,14,584,26,,,,,,,,,,,,2023-04-07_19h46.49.027,FaceAttractiveness,2022.2.5,145.7441258163273,
treatment,0% Never,100% Always,images\ LIP_CFD_AF_245_143_N.png,0,0,0,0,6,15,585,44,,,,,,,,,,,,2023-04-07_19h46.49.027,FaceAttractiveness,2022.2.5,145.7441258163273,
treatment,0% Never,100% Always,images\ RCHEEK_CFD_LM_201_057_N.png,0,0,0,0,6,16,586,89,,,,,,,,,,,,2023-04-07_19h46.49.027,FaceAttractiveness,2022.2.5,145.7441258163273,
treatment,0% Never,100% Always,images\FOREHEAD_CFD_LM_203_026_N.png,0,0,0,0,6,17,587,14,,,,,,,,,,,,2023-04-07_19h46.49.027,FaceAttractiveness,2022.2.5,145.7441258163273,
treatment,0% Never,100% Always,images\FOREHEAD_CFD_WF_250_167_N.png,0,0,0,0,6,18,588,17,,,,,,,,,,,,2023-04-07_19h46.49.027,FaceAttractiveness,2022.2.5,145.7441258163273,
treatment,0% Never,100% Always,images\FOREHEAD_CFD_BF_214_308_N.png,0,0,0,0,6,19,589,8,,,,,,,,,,,,2023-04-07_19h46.49.027,FaceAttractiveness,2022.2.5,145.7441258163273,
treatment,0% Never,100% Always,images\ NASALTIP_CFD_BF_214_308_N.png,0,0,0,0,6,20,590,65,,,,,,,,,,,,2023-04-07_19h46.49.027,FaceAttractiveness,2022.2.5,145.7441258163273,
treatment,0% Never,100% Always,images\ LIP_CFD_LM_201_057_N.png,0,0,0,0,6,21,591,51,,,,,,,,,,,,2023-04-07_19h46.49.027,FaceAttractiveness,2022.2.5,145.7441258163273,
