Task,LeftLabel,RightLabel,faceImages,RatingBlockOrder.thisRepN,RatingBlockOrder.thisTrialN,RatingBlockOrder.thisN,RatingBlockOrder.thisIndex,originalFaceTrials.thisRepN,originalFaceTrials.thisTrialN,originalFaceTrials.thisN,originalFaceTrials.thisIndex,face_image_q.started,text_2.started,slider_2.started,text_3.started,mouse_7.started,image_3.started,slider.started,text_2.stopped,text_3.stopped,mouse_7.stopped,image_3.stopped,slider.response,slider.rt,slider_2.response,slider_2.rt,mouse_7.x,mouse_7.y,mouse_7.leftButton,mouse_7.midButton,mouse_7.rightButton,mouse_7.time,EndText.started,EndText.stopped,Name,Gender,Age,Ethnicity,date,expName,psychopyVersion,frameRate,
treatment,0% Never,100% Always,images\FOREHEAD_CFD_AM_233_236_N.png,0,0,0,0,0,0,0,7,,,,,,,,,,,,,,,,,,,,,,,,,,,,2023-04-07_19h15.07.036,FaceAttractiveness,2022.2.5,145.05850933086427,
treatment,0% Never,100% Always,images\ RCHEEK_087_M_M_N_A.png,0,0,0,0,0,1,1,78,,,,,,,,,,,,,,,,,,,,,,,,,,,,2023-04-07_19h15.07.036,FaceAttractiveness,2022.2.5,145.05850933086427,
treatment,0% Never,100% Always,images\ LCHEEK_CFD_WF_250_167_N.png,0,0,0,0,0,2,2,36,,,,,,,,,,,,,,,,,,,,,,,,,,,,2023-04-07_19h15.07.036,FaceAttractiveness,2022.2.5,145.05850933086427,
treatment,0% Never,100% Always,"images\ NASALTIP_136_M_M_N_A.png
",0,0,0,0,0,3,3,60,,,,,,,,,,,,,,,,,,,,,,,,,,,,2023-04-07_19h15.07.036,FaceAttractiveness,2022.2.5,145.05850933086427,
treatment,0% Never,100% Always,images\ LCHEEK_CFD_BM_213_134_N.png,0,0,0,0,0,4,4,29,,,,,,,,,,,,,,,,,,,,,,,,,,,,2023-04-07_19h15.07.036,FaceAttractiveness,2022.2.5,145.05850933086427,
treatment,0% Never,100% Always,images\FOREHEAD_CFD_BM_213_134_N.png,0,0,0,0,0,5,5,10,,,,,,,,,,,,,,,,,,,,,,,,,,,,2023-04-07_19h15.07.036,FaceAttractiveness,2022.2.5,145.05850933086427,
treatment,0% Never,100% Always,images\FOREHEAD_CFD_AF_231_357_N.png,0,0,0,0,0,6,6,4,,,,,,,,,,,,,,,,,,,,,,,,,,,,2023-04-07_19h15.07.036,FaceAttractiveness,2022.2.5,145.05850933086427,
treatment,0% Never,100% Always,images\FOREHEAD_CFD_AF_245_143_N.png,0,0,0,0,0,7,7,6,,,,,,,,,,,,,,,,,,,,,,,,,,,,2023-04-07_19h15.07.036,FaceAttractiveness,2022.2.5,145.05850933086427,
treatment,0% Never,100% Always,images\ LIP_CFD_AF_231_357_N.png,0,0,0,0,0,8,8,42,,,,,,,,,,,,,,,,,,,,,,,,,,,,2023-04-07_19h15.07.036,FaceAttractiveness,2022.2.5,145.05850933086427,
treatment,0% Never,100% Always,images\ LIP_087_M_M_N_A.png,0,0,0,0,0,9,9,40,,,,,,,,,,,,,,,,,,,,,,,,,,,,2023-04-07_19h15.07.036,FaceAttractiveness,2022.2.5,145.05850933086427,
treatment,0% Never,100% Always,images\ LCHEEK_CFD_WF_200_099_N.png,0,0,0,0,0,10,10,35,,,,,,,,,,,,,,,,,,,,,,,,,,,,2023-04-07_19h15.07.036,FaceAttractiveness,2022.2.5,145.05850933086427,
treatment,0% Never,100% Always,images\FOREHEAD_006_M_F_N_A.png,0,0,0,0,0,11,11,0,,,,,,,,,,,,,,,,,,,,,,,,,,,,2023-04-07_19h15.07.036,FaceAttractiveness,2022.2.5,145.05850933086427,
treatment,0% Never,100% Always,images\ LCHEEK_CFD_WM_212_097_N.png,0,0,0,0,0,12,12,37,,,,,,,,,,,,,,,,,,,,,,,,,,,,2023-04-07_19h15.07.036,FaceAttractiveness,2022.2.5,145.05850933086427,
treatment,0% Never,100% Always,"images\ RCHEEK_CFD_BM_234_172_N.png
",0,0,0,0,0,13,13,87,,,,,,,,,,,,,,,,,,,,,,,,,,,,2023-04-07_19h15.07.036,FaceAttractiveness,2022.2.5,145.05850933086427,
treatment,0% Never,100% Always,images\ LCHEEK_CFD_AF_231_357_N.png,0,0,0,0,0,14,14,23,,,,,,,,,,,,,,,,,,,,,,,,,,,,2023-04-07_19h15.07.036,FaceAttractiveness,2022.2.5,145.05850933086427,
treatment,0% Never,100% Always,"images\ NASALTIP_CFD_BM_234_172_N.png
",0,0,0,0,0,15,15,68,,,,,,,,,,,,,,,,,,,,,,,,,,,,2023-04-07_19h15.07.036,FaceAttractiveness,2022.2.5,145.05850933086427,
treatment,0% Never,100% Always,images\ NASALTIP_CFD_WM_212_097_N.png,0,0,0,0,0,16,16,75,,,,,,,,,,,,,,,,,,,,,,,,,,,,2023-04-07_19h15.07.036,FaceAttractiveness,2022.2.5,145.05850933086427,
treatment,0% Never,100% Always,images\FOREHEAD_CFD_LF_224_176_N.png,0,0,0,0,0,17,17,12,,,,,,,,,,,,,,,,,,,,,,,,,,,,2023-04-07_19h15.07.036,FaceAttractiveness,2022.2.5,145.05850933086427,
treatment,0% Never,100% Always,images\FOREHEAD_CFD_WF_002_004_N.png,0,0,0,0,0,18,18,15,,,,,,,,,,,,,,,,,,,,,,,,,,,,2023-04-07_19h15.07.036,FaceAttractiveness,2022.2.5,145.05850933086427,
treatment,0% Never,100% Always,images\ LIP_035_M_F_N_A.png,0,0,0,0,0,19,19,39,,,,,,,,,,,,,,,,,,,,,,,,,,,,2023-04-07_19h15.07.036,FaceAttractiveness,2022.2.5,145.05850933086427,
treatment,0% Never,100% Always,images\ NASALTIP_CFD_WF_200_099_N.png,0,0,0,0,0,20,20,73,,,,,,,,,,,,,,,,,,,,,,,,,,,,2023-04-07_19h15.07.036,FaceAttractiveness,2022.2.5,145.05850933086427,
treatment,0% Never,100% Always,images\FOREHEAD_087_M_M_N_A.png,0,0,0,0,0,21,21,2,,,,,,,,,,,,,,,,,,,,,,,,,,,,2023-04-07_19h15.07.036,FaceAttractiveness,2022.2.5,145.05850933086427,
treatment,0% Never,100% Always,images\ LIP_CFD_WF_200_099_N.png,0,0,0,0,0,22,22,54,,,,,,,,,,,,,,,,,,,,,,,,,,,,2023-04-07_19h15.07.036,FaceAttractiveness,2022.2.5,145.05850933086427,
treatment,0% Never,100% Always,images\ RCHEEK_CFD_BM_213_134_N.png,0,0,0,0,0,23,23,86,,,,,,,,,,,,,,,,,,,,,,,,,,,,2023-04-07_19h15.07.036,FaceAttractiveness,2022.2.5,145.05850933086427,
treatment,0% Never,100% Always,images\FOREHEAD_CFD_BM_234_172_N.png,0,0,0,0,0,24,24,11,,,,,,,,,,,,,,,,,,,,,,,,,,,,2023-04-07_19h15.07.036,FaceAttractiveness,2022.2.5,145.05850933086427,
treatment,0% Never,100% Always,"images\ LIP_136_M_M_N_A.png
",0,0,0,0,0,25,25,41,,,,,,,,,,,,,,,,,,,,,,,,,,,,2023-04-07_19h15.07.036,FaceAttractiveness,2022.2.5,145.05850933086427,
treatment,0% Never,100% Always,images\ RCHEEK_CFD_BF_214_308_N.png,0,0,0,0,0,26,26,84,,,,,,,,,,,,,,,,,,,,,,,,,,,,2023-04-07_19h15.07.036,FaceAttractiveness,2022.2.5,145.05850933086427,
treatment,0% Never,100% Always,"images\ LCHEEK_136_M_M_N_A.png
",0,0,0,0,0,27,27,22,,,,,,,,,,,,,,,,,,,,,,,,,,,,2023-04-07_19h15.07.036,FaceAttractiveness,2022.2.5,145.05850933086427,
treatment,0% Never,100% Always,"images\ RCHEEK_CFD_AM_233_236_N.png
",0,0,0,0,0,28,28,83,,,,,,,,,,,,,,,,,,,,,,,,,,,,2023-04-07_19h15.07.036,FaceAttractiveness,2022.2.5,145.05850933086427,
treatment,0% Never,100% Always,images\ RCHEEK_CFD_AF_231_357_N.png,0,0,0,0,0,29,29,80,,,,,,,,,,,,,,,,,,,,,,,,,,,,2023-04-07_19h15.07.036,FaceAttractiveness,2022.2.5,145.05850933086427,
treatment,0% Never,100% Always,images\ NASALTIP_CFD_BF_224_002_N.png,0,0,0,0,0,30,30,66,,,,,,,,,,,,,,,,,,,,,,,,,,,,2023-04-07_19h15.07.036,FaceAttractiveness,2022.2.5,145.05850933086427,
treatment,0% Never,100% Always,images\FOREHEAD_CFD_AF_237_223_N.png,0,0,0,0,0,31,31,5,,,,,,,,,,,,,,,,,,,,,,,,,,,,2023-04-07_19h15.07.036,FaceAttractiveness,2022.2.5,145.05850933086427,
treatment,0% Never,100% Always,"images\ LCHEEK_CFD_WF_002_004_N.png
",0,0,0,0,0,32,32,34,,,,,,,,,,,,,,,,,,,,,,,,,,,,2023-04-07_19h15.07.036,FaceAttractiveness,2022.2.5,145.05850933086427,
treatment,0% Never,100% Always,images\ LCHEEK_CFD_LM_203_026_N.png,0,0,0,0,0,33,33,33,,,,,,,,,,,,,,,,,,,,,,,,,,,,2023-04-07_19h15.07.036,FaceAttractiveness,2022.2.5,145.05850933086427,
treatment,0% Never,100% Always,images\ NASALTIP_CFD_LF_224_176_N.png,0,0,0,0,0,34,34,69,,,,,,,,,,,,,,,,,,,,,,,,,,,,2023-04-07_19h15.07.036,FaceAttractiveness,2022.2.5,145.05850933086427,
treatment,0% Never,100% Always,"images\ LCHEEK_CFD_BM_234_172_N.png
",0,0,0,0,0,35,35,30,,,,,,,,,,,,,,,,,,,,,,,,,,,,2023-04-07_19h15.07.036,FaceAttractiveness,2022.2.5,145.05850933086427,
treatment,0% Never,100% Always,images\ NASALTIP_035_M_F_N_A.png,0,0,0,0,0,36,36,58,,,,,,,,,,,,,,,,,,,,,,,,,,,,2023-04-07_19h15.07.036,FaceAttractiveness,2022.2.5,145.05850933086427,
treatment,0% Never,100% Always,images\ NASALTIP_CFD_LM_201_057_N.png,0,0,0,0,0,37,37,70,,,,,,,,,,,,,,,,,,,,,,,,,,,,2023-04-07_19h15.07.036,FaceAttractiveness,2022.2.5,145.05850933086427,
treatment,0% Never,100% Always,images\ NASALTIP_CFD_AF_237_223_N.png,0,0,0,0,0,38,38,62,,,,,,,,,,,,,,,,,,,,,,,,,,,,2023-04-07_19h15.07.036,FaceAttractiveness,2022.2.5,145.05850933086427,
treatment,0% Never,100% Always,images\ LIP_CFD_BM_213_134_N.png,0,0,0,0,0,39,39,48,,,,,,,,,,,,,,,,,,,,,,,,,,,,2023-04-07_19h15.07.036,FaceAttractiveness,2022.2.5,145.05850933086427,
treatment,0% Never,100% Always,images\ RCHEEK_CFD_LM_203_026_N.png,0,0,0,0,0,40,40,90,,,,,,,,,,,,,,,,,,,,,,,,,,,,2023-04-07_19h15.07.036,FaceAttractiveness,2022.2.5,145.05850933086427,
treatment,0% Never,100% Always,images\ RCHEEK_CFD_WM_212_097_N.png,0,0,0,0,0,41,41,94,,,,,,,,,,,,,,,,,,,,,,,,,,,,2023-04-07_19h15.07.036,FaceAttractiveness,2022.2.5,145.05850933086427,
treatment,0% Never,100% Always,images\ LIP_CFD_LF_224_176_N.png,0,0,0,0,0,42,42,50,,,,,,,,,,,,,,,,,,,,,,,,,,,,2023-04-07_19h15.07.036,FaceAttractiveness,2022.2.5,145.05850933086427,
treatment,0% Never,100% Always,images\ LIP_CFD_BF_224_002_N.png,0,0,0,0,0,43,43,47,,,,,,,,,,,,,,,,,,,,,,,,,,,,2023-04-07_19h15.07.036,FaceAttractiveness,2022.2.5,145.05850933086427,
treatment,0% Never,100% Always,images\ RCHEEK_CFD_AF_237_223_N.png,0,0,0,0,0,44,44,81,,,,,,,,,,,,,,,,,,,,,,,,,,,,2023-04-07_19h15.07.036,FaceAttractiveness,2022.2.5,145.05850933086427,
treatment,0% Never,100% Always,images\ LIP_006_M_F_N_A.png,0,0,0,0,0,45,45,38,,,,,,,,,,,,,,,,,,,,,,,,,,,,2023-04-07_19h15.07.036,FaceAttractiveness,2022.2.5,145.05850933086427,
treatment,0% Never,100% Always,images\FOREHEAD_CFD_WF_200_099_N.png,0,0,0,0,0,46,46,16,,,,,,,,,,,,,,,,,,,,,,,,,,,,2023-04-07_19h15.07.036,FaceAttractiveness,2022.2.5,145.05850933086427,
treatment,0% Never,100% Always,images\FOREHEAD_CFD_BF_224_002_N.png,0,0,0,0,0,47,47,9,,,,,,,,,,,,,,,,,,,,,,,,,,,,2023-04-07_19h15.07.036,FaceAttractiveness,2022.2.5,145.05850933086427,
treatment,0% Never,100% Always,images\FOREHEAD_CFD_BF_214_308_N.png,0,0,0,0,0,48,48,8,,,,,,,,,,,,,,,,,,,,,,,,,,,,2023-04-07_19h15.07.036,FaceAttractiveness,2022.2.5,145.05850933086427,
treatment,0% Never,100% Always,"images\ NASALTIP_CFD_WF_002_004_N.png
",0,0,0,0,0,49,49,72,,,,,,,,,,,,,,,,,,,,,,,,,,,,2023-04-07_19h15.07.036,FaceAttractiveness,2022.2.5,145.05850933086427,
treatment,0% Never,100% Always,images\ RCHEEK_035_M_F_N_A.png,0,0,0,0,0,50,50,77,,,,,,,,,,,,,,,,,,,,,,,,,,,,2023-04-07_19h15.07.036,FaceAttractiveness,2022.2.5,145.05850933086427,
treatment,0% Never,100% Always,images\ NASALTIP_CFD_AF_245_143_N.png,0,0,0,0,0,51,51,63,,,,,,,,,,,,,,,,,,,,,,,,,,,,2023-04-07_19h15.07.036,FaceAttractiveness,2022.2.5,145.05850933086427,
treatment,0% Never,100% Always,"images\ RCHEEK_136_M_M_N_A.png
",0,0,0,0,0,52,52,79,,,,,,,,,,,,,,,,,,,,,,,,,,,,2023-04-07_19h15.07.036,FaceAttractiveness,2022.2.5,145.05850933086427,
treatment,0% Never,100% Always,"images\ LIP_CFD_WF_002_004_N.png
",0,0,0,0,0,53,53,53,,,,,,,,,,,,,,,,,,,,,,,,,,,,2023-04-07_19h15.07.036,FaceAttractiveness,2022.2.5,145.05850933086427,
treatment,0% Never,100% Always,images\ RCHEEK_CFD_LF_224_176_N.png,0,0,0,0,0,54,54,88,,,,,,,,,,,,,,,,,,,,,,,,,,,,2023-04-07_19h15.07.036,FaceAttractiveness,2022.2.5,145.05850933086427,
treatment,0% Never,100% Always,images\ RCHEEK_006_M_F_N_A.png,0,0,0,0,0,55,55,76,,,,,,,,,,,,,,,,,,,,,,,,,,,,2023-04-07_19h15.07.036,FaceAttractiveness,2022.2.5,145.05850933086427,
treatment,0% Never,100% Always,images\ NASALTIP_087_M_M_N_A.png,0,0,0,0,0,56,56,59,,,,,,,,,,,,,,,,,,,,,,,,,,,,2023-04-07_19h15.07.036,FaceAttractiveness,2022.2.5,145.05850933086427,
treatment,0% Never,100% Always,images\ NASALTIP_CFD_AF_231_357_N.png,0,0,0,0,0,57,57,61,,,,,,,,,,,,,,,,,,,,,,,,,,,,2023-04-07_19h15.07.036,FaceAttractiveness,2022.2.5,145.05850933086427,
treatment,0% Never,100% Always,images\FOREHEAD_035_M_F_N_A.png,0,0,0,0,0,58,58,1,,,,,,,,,,,,,,,,,,,,,,,,,,,,2023-04-07_19h15.07.036,FaceAttractiveness,2022.2.5,145.05850933086427,
treatment,0% Never,100% Always,images\ LCHEEK_CFD_LM_201_057_N.png,0,0,0,0,0,59,59,32,,,,,,,,,,,,,,,,,,,,,,,,,,,,2023-04-07_19h15.07.036,FaceAttractiveness,2022.2.5,145.05850933086427,
treatment,0% Never,100% Always,images\ LCHEEK_035_M_F_N_A.png,0,0,0,0,0,60,60,20,,,,,,,,,,,,,,,,,,,,,,,,,,,,2023-04-07_19h15.07.036,FaceAttractiveness,2022.2.5,145.05850933086427,
treatment,0% Never,100% Always,images\ LIP_CFD_LM_203_026_N.png,0,0,0,0,0,61,61,52,,,,,,,,,,,,,,,,,,,,,,,,,,,,2023-04-07_19h15.07.036,FaceAttractiveness,2022.2.5,145.05850933086427,
treatment,0% Never,100% Always,images\ NASALTIP_006_M_F_N_A.png,0,0,0,0,0,62,62,57,,,,,,,,,,,,,,,,,,,,,,,,,,,,2023-04-07_19h15.07.036,FaceAttractiveness,2022.2.5,145.05850933086427,
treatment,0% Never,100% Always,images\ LCHEEK_087_M_M_N_A.png,0,0,0,0,0,63,63,21,,,,,,,,,,,,,,,,,,,,,,,,,,,,2023-04-07_19h15.07.036,FaceAttractiveness,2022.2.5,145.05850933086427,
treatment,0% Never,100% Always,images\FOREHEAD_CFD_LM_201_057_N.png,0,0,0,0,0,64,64,13,,,,,,,,,,,,,,,,,,,,,,,,,,,,2023-04-07_19h15.07.036,FaceAttractiveness,2022.2.5,145.05850933086427,
treatment,0% Never,100% Always,images\ NASALTIP_CFD_WF_250_167_N.png,0,0,0,0,0,65,65,74,,,,,,,,,,,,,,,,,,,,,,,,,,,,2023-04-07_19h15.07.036,FaceAttractiveness,2022.2.5,145.05850933086427,
treatment,0% Never,100% Always,images\FOREHEAD_CFD_WF_250_167_N.png,0,0,0,0,0,66,66,17,,,,,,,,,,,,,,,,,,,,,,,,,,,,2023-04-07_19h15.07.036,FaceAttractiveness,2022.2.5,145.05850933086427,
treatment,0% Never,100% Always,images\ RCHEEK_CFD_LM_201_057_N.png,0,0,0,0,0,67,67,89,,,,,,,,,,,,,,,,,,,,,,,,,,,,2023-04-07_19h15.07.036,FaceAttractiveness,2022.2.5,145.05850933086427,
treatment,0% Never,100% Always,images\ RCHEEK_CFD_BF_224_002_N.png,0,0,0,0,0,68,68,85,,,,,,,,,,,,,,,,,,,,,,,,,,,,2023-04-07_19h15.07.036,FaceAttractiveness,2022.2.5,145.05850933086427,
treatment,0% Never,100% Always,"images\ RCHEEK_CFD_WF_002_004_N.png
",0,0,0,0,0,69,69,91,,,,,,,,,,,,,,,,,,,,,,,,,,,,2023-04-07_19h15.07.036,FaceAttractiveness,2022.2.5,145.05850933086427,
treatment,0% Never,100% Always,images\FOREHEAD_CFD_LM_203_026_N.png,0,0,0,0,0,70,70,14,,,,,,,,,,,,,,,,,,,,,,,,,,,,2023-04-07_19h15.07.036,FaceAttractiveness,2022.2.5,145.05850933086427,
treatment,0% Never,100% Always,"images\ NASALTIP_CFD_AM_233_236_N.png
",0,0,0,0,0,71,71,64,,,,,,,,,,,,,,,,,,,,,,,,,,,,2023-04-07_19h15.07.036,FaceAttractiveness,2022.2.5,145.05850933086427,
treatment,0% Never,100% Always,images\ LIP_CFD_LM_201_057_N.png,0,0,0,0,0,72,72,51,,,,,,,,,,,,,,,,,,,,,,,,,,,,2023-04-07_19h15.07.036,FaceAttractiveness,2022.2.5,145.05850933086427,
treatment,0% Never,100% Always,images\ LCHEEK_CFD_AF_245_143_N.png,0,0,0,0,0,73,73,25,,,,,,,,,,,,,,,,,,,,,,,,,,,,2023-04-07_19h15.07.036,FaceAttractiveness,2022.2.5,145.05850933086427,
treatment,0% Never,100% Always,images\ NASALTIP_CFD_BM_213_134_N.png,0,0,0,0,0,74,74,67,,,,,,,,,,,,,,,,,,,,,,,,,,,,2023-04-07_19h15.07.036,FaceAttractiveness,2022.2.5,145.05850933086427,
treatment,0% Never,100% Always,images\ NASALTIP_CFD_LM_203_026_N.png,0,0,0,0,0,75,75,71,,,,,,,,,,,,,,,,,,,,,,,,,,,,2023-04-07_19h15.07.036,FaceAttractiveness,2022.2.5,145.05850933086427,
treatment,0% Never,100% Always,images\ RCHEEK_CFD_AF_245_143_N.png,0,0,0,0,0,76,76,82,,,,,,,,,,,,,,,,,,,,,,,,,,,,2023-04-07_19h15.07.036,FaceAttractiveness,2022.2.5,145.05850933086427,
treatment,0% Never,100% Always,images\ LIP_CFD_WM_212_097_N.png,0,0,0,0,0,77,77,56,,,,,,,,,,,,,,,,,,,,,,,,,,,,2023-04-07_19h15.07.036,FaceAttractiveness,2022.2.5,145.05850933086427,
treatment,0% Never,100% Always,images\ NASALTIP_CFD_BF_214_308_N.png,0,0,0,0,0,78,78,65,,,,,,,,,,,,,,,,,,,,,,,,,,,,2023-04-07_19h15.07.036,FaceAttractiveness,2022.2.5,145.05850933086427,
treatment,0% Never,100% Always,images\ LCHEEK_CFD_AF_237_223_N.png,0,0,0,0,0,79,79,24,,,,,,,,,,,,,,,,,,,,,,,,,,,,2023-04-07_19h15.07.036,FaceAttractiveness,2022.2.5,145.05850933086427,
treatment,0% Never,100% Always,"images\ LCHEEK_CFD_AM_233_236_N.png
",0,0,0,0,0,80,80,26,,,,,,,,,,,,,,,,,,,,,,,,,,,,2023-04-07_19h15.07.036,FaceAttractiveness,2022.2.5,145.05850933086427,
treatment,0% Never,100% Always,images\ LIP_CFD_BF_214_308_N.png,0,0,0,0,0,81,81,46,,,,,,,,,,,,,,,,,,,,,,,,,,,,2023-04-07_19h15.07.036,FaceAttractiveness,2022.2.5,145.05850933086427,
treatment,0% Never,100% Always,images\ LCHEEK_CFD_BF_214_308_N.png,0,0,0,0,0,82,82,27,,,,,,,,,,,,,,,,,,,,,,,,,,,,2023-04-07_19h15.07.036,FaceAttractiveness,2022.2.5,145.05850933086427,
treatment,0% Never,100% Always,"images\ LIP_CFD_BM_234_172_N.png
",0,0,0,0,0,83,83,49,,,,,,,,,,,,,,,,,,,,,,,,,,,,2023-04-07_19h15.07.036,FaceAttractiveness,2022.2.5,145.05850933086427,
treatment,0% Never,100% Always,images\FOREHEAD_136_M_M_N_A.png,0,0,0,0,0,84,84,3,,,,,,,,,,,,,,,,,,,,,,,,,,,,2023-04-07_19h15.07.036,FaceAttractiveness,2022.2.5,145.05850933086427,
treatment,0% Never,100% Always,images\ RCHEEK_CFD_WF_250_167_N.png,0,0,0,0,0,85,85,93,,,,,,,,,,,,,,,,,,,,,,,,,,,,2023-04-07_19h15.07.036,FaceAttractiveness,2022.2.5,145.05850933086427,
treatment,0% Never,100% Always,images\ LIP_CFD_AF_245_143_N.png,0,0,0,0,0,86,86,44,,,,,,,,,,,,,,,,,,,,,,,,,,,,2023-04-07_19h15.07.036,FaceAttractiveness,2022.2.5,145.05850933086427,
treatment,0% Never,100% Always,images\ LIP_CFD_AF_237_223_N.png,0,0,0,0,0,87,87,43,,,,,,,,,,,,,,,,,,,,,,,,,,,,2023-04-07_19h15.07.036,FaceAttractiveness,2022.2.5,145.05850933086427,
treatment,0% Never,100% Always,"images\ LIP_CFD_AM_233_236_N.png
",0,0,0,0,0,88,88,45,,,,,,,,,,,,,,,,,,,,,,,,,,,,2023-04-07_19h15.07.036,FaceAttractiveness,2022.2.5,145.05850933086427,
treatment,0% Never,100% Always,images\ LCHEEK_CFD_BF_224_002_N.png,0,0,0,0,0,89,89,28,,,,,,,,,,,,,,,,,,,,,,,,,,,,2023-04-07_19h15.07.036,FaceAttractiveness,2022.2.5,145.05850933086427,
treatment,0% Never,100% Always,images\ LCHEEK_006_M_F_N_A.png,0,0,0,0,0,90,90,19,,,,,,,,,,,,,,,,,,,,,,,,,,,,2023-04-07_19h15.07.036,FaceAttractiveness,2022.2.5,145.05850933086427,
treatment,0% Never,100% Always,images\ LCHEEK_CFD_LF_224_176_N.png,0,0,0,0,0,91,91,31,,,,,,,,,,,,,,,,,,,,,,,,,,,,2023-04-07_19h15.07.036,FaceAttractiveness,2022.2.5,145.05850933086427,
treatment,0% Never,100% Always,images\FOREHEAD_CFD_WM_212_097_N.png,0,0,0,0,0,92,92,18,,,,,,,,,,,,,,,,,,,,,,,,,,,,2023-04-07_19h15.07.036,FaceAttractiveness,2022.2.5,145.05850933086427,
treatment,0% Never,100% Always,images\ LIP_CFD_WF_250_167_N.png,0,0,0,0,0,93,93,55,,,,,,,,,,,,,,,,,,,,,,,,,,,,2023-04-07_19h15.07.036,FaceAttractiveness,2022.2.5,145.05850933086427,
treatment,0% Never,100% Always,images\ RCHEEK_CFD_WF_200_099_N.png,0,0,0,0,0,94,94,92,,,,,,,,,,,,,,,,,,,,,,,,,,,,2023-04-07_19h15.07.036,FaceAttractiveness,2022.2.5,145.05850933086427,
treatment,0% Never,100% Always,images\ NASALTIP_CFD_AF_237_223_N.png,0,0,0,0,1,0,95,62,,,,,,,,,,,,,,,,,,,,,,,,,,,,2023-04-07_19h15.07.036,FaceAttractiveness,2022.2.5,145.05850933086427,
treatment,0% Never,100% Always,images\FOREHEAD_087_M_M_N_A.png,0,0,0,0,1,1,96,2,,,,,,,,,,,,,,,,,,,,,,,,,,,,2023-04-07_19h15.07.036,FaceAttractiveness,2022.2.5,145.05850933086427,
treatment,0% Never,100% Always,images\ LIP_CFD_WM_212_097_N.png,0,0,0,0,1,2,97,56,,,,,,,,,,,,,,,,,,,,,,,,,,,,2023-04-07_19h15.07.036,FaceAttractiveness,2022.2.5,145.05850933086427,
treatment,0% Never,100% Always,images\ LCHEEK_CFD_LM_201_057_N.png,0,0,0,0,1,3,98,32,,,,,,,,,,,,,,,,,,,,,,,,,,,,2023-04-07_19h15.07.036,FaceAttractiveness,2022.2.5,145.05850933086427,
treatment,0% Never,100% Always,images\ LCHEEK_CFD_WF_250_167_N.png,0,0,0,0,1,4,99,36,,,,,,,,,,,,,,,,,,,,,,,,,,,,2023-04-07_19h15.07.036,FaceAttractiveness,2022.2.5,145.05850933086427,
treatment,0% Never,100% Always,images\ RCHEEK_CFD_BF_224_002_N.png,0,0,0,0,1,5,100,85,,,,,,,,,,,,,,,,,,,,,,,,,,,,2023-04-07_19h15.07.036,FaceAttractiveness,2022.2.5,145.05850933086427,
treatment,0% Never,100% Always,images\ NASALTIP_CFD_LM_201_057_N.png,0,0,0,0,1,6,101,70,,,,,,,,,,,,,,,,,,,,,,,,,,,,2023-04-07_19h15.07.036,FaceAttractiveness,2022.2.5,145.05850933086427,
treatment,0% Never,100% Always,images\ RCHEEK_087_M_M_N_A.png,0,0,0,0,1,7,102,78,,,,,,,,,,,,,,,,,,,,,,,,,,,,2023-04-07_19h15.07.036,FaceAttractiveness,2022.2.5,145.05850933086427,
treatment,0% Never,100% Always,"images\ LIP_136_M_M_N_A.png
",0,0,0,0,1,8,103,41,,,,,,,,,,,,,,,,,,,,,,,,,,,,2023-04-07_19h15.07.036,FaceAttractiveness,2022.2.5,145.05850933086427,
treatment,0% Never,100% Always,images\ LCHEEK_CFD_AF_245_143_N.png,0,0,0,0,1,9,104,25,,,,,,,,,,,,,,,,,,,,,,,,,,,,2023-04-07_19h15.07.036,FaceAttractiveness,2022.2.5,145.05850933086427,
treatment,0% Never,100% Always,images\ NASALTIP_087_M_M_N_A.png,0,0,0,0,1,10,105,59,,,,,,,,,,,,,,,,,,,,,,,,,,,,2023-04-07_19h15.07.036,FaceAttractiveness,2022.2.5,145.05850933086427,
treatment,0% Never,100% Always,images\ LCHEEK_CFD_BF_214_308_N.png,0,0,0,0,1,11,106,27,,,,,,,,,,,,,,,,,,,,,,,,,,,,2023-04-07_19h15.07.036,FaceAttractiveness,2022.2.5,145.05850933086427,
treatment,0% Never,100% Always,images\ LIP_CFD_WF_200_099_N.png,0,0,0,0,1,12,107,54,,,,,,,,,,,,,,,,,,,,,,,,,,,,2023-04-07_19h15.07.036,FaceAttractiveness,2022.2.5,145.05850933086427,
treatment,0% Never,100% Always,images\ NASALTIP_CFD_AF_231_357_N.png,0,0,0,0,1,13,108,61,,,,,,,,,,,,,,,,,,,,,,,,,,,,2023-04-07_19h15.07.036,FaceAttractiveness,2022.2.5,145.05850933086427,
treatment,0% Never,100% Always,images\ RCHEEK_CFD_LM_201_057_N.png,0,0,0,0,1,14,109,89,,,,,,,,,,,,,,,,,,,,,,,,,,,,2023-04-07_19h15.07.036,FaceAttractiveness,2022.2.5,145.05850933086427,
treatment,0% Never,100% Always,images\ LIP_CFD_WF_250_167_N.png,0,0,0,0,1,15,110,55,,,,,,,,,,,,,,,,,,,,,,,,,,,,2023-04-07_19h15.07.036,FaceAttractiveness,2022.2.5,145.05850933086427,
treatment,0% Never,100% Always,images\FOREHEAD_CFD_BF_224_002_N.png,0,0,0,0,1,16,111,9,,,,,,,,,,,,,,,,,,,,,,,,,,,,2023-04-07_19h15.07.036,FaceAttractiveness,2022.2.5,145.05850933086427,
treatment,0% Never,100% Always,images\ RCHEEK_CFD_WF_200_099_N.png,0,0,0,0,1,17,112,92,,,,,,,,,,,,,,,,,,,,,,,,,,,,2023-04-07_19h15.07.036,FaceAttractiveness,2022.2.5,145.05850933086427,
treatment,0% Never,100% Always,images\ RCHEEK_035_M_F_N_A.png,0,0,0,0,1,18,113,77,,,,,,,,,,,,,,,,,,,,,,,,,,,,2023-04-07_19h15.07.036,FaceAttractiveness,2022.2.5,145.05850933086427,
treatment,0% Never,100% Always,images\FOREHEAD_CFD_BM_234_172_N.png,0,0,0,0,1,19,114,11,,,,,,,,,,,,,,,,,,,,,,,,,,,,2023-04-07_19h15.07.036,FaceAttractiveness,2022.2.5,145.05850933086427,
treatment,0% Never,100% Always,"images\ LIP_CFD_WF_002_004_N.png
",0,0,0,0,1,20,115,53,,,,,,,,,,,,,,,,,,,,,,,,,,,,2023-04-07_19h15.07.036,FaceAttractiveness,2022.2.5,145.05850933086427,
treatment,0% Never,100% Always,images\FOREHEAD_035_M_F_N_A.png,0,0,0,0,1,21,116,1,,,,,,,,,,,,,,,,,,,,,,,,,,,,2023-04-07_19h15.07.036,FaceAttractiveness,2022.2.5,145.05850933086427,
treatment,0% Never,100% Always,images\ NASALTIP_CFD_LM_203_026_N.png,0,0,0,0,1,22,117,71,,,,,,,,,,,,,,,,,,,,,,,,,,,,2023-04-07_19h15.07.036,FaceAttractiveness,2022.2.5,145.05850933086427,
treatment,0% Never,100% Always,images\FOREHEAD_CFD_LF_224_176_N.png,0,0,0,0,1,23,118,12,,,,,,,,,,,,,,,,,,,,,,,,,,,,2023-04-07_19h15.07.036,FaceAttractiveness,2022.2.5,145.05850933086427,
treatment,0% Never,100% Always,images\ LIP_087_M_M_N_A.png,0,0,0,0,1,24,119,40,,,,,,,,,,,,,,,,,,,,,,,,,,,,2023-04-07_19h15.07.036,FaceAttractiveness,2022.2.5,145.05850933086427,
treatment,0% Never,100% Always,images\ NASALTIP_CFD_BF_224_002_N.png,0,0,0,0,1,25,120,66,,,,,,,,,,,,,,,,,,,,,,,,,,,,2023-04-07_19h15.07.036,FaceAttractiveness,2022.2.5,145.05850933086427,
treatment,0% Never,100% Always,images\ LCHEEK_CFD_AF_237_223_N.png,0,0,0,0,1,26,121,24,,,,,,,,,,,,,,,,,,,,,,,,,,,,2023-04-07_19h15.07.036,FaceAttractiveness,2022.2.5,145.05850933086427,
treatment,0% Never,100% Always,images\FOREHEAD_CFD_BM_213_134_N.png,0,0,0,0,1,27,122,10,,,,,,,,,,,,,,,,,,,,,,,,,,,,2023-04-07_19h15.07.036,FaceAttractiveness,2022.2.5,145.05850933086427,
treatment,0% Never,100% Always,images\ RCHEEK_006_M_F_N_A.png,0,0,0,0,1,28,123,76,,,,,,,,,,,,,,,,,,,,,,,,,,,,2023-04-07_19h15.07.036,FaceAttractiveness,2022.2.5,145.05850933086427,
treatment,0% Never,100% Always,images\ RCHEEK_CFD_BF_214_308_N.png,0,0,0,0,1,29,124,84,,,,,,,,,,,,,,,,,,,,,,,,,,,,2023-04-07_19h15.07.036,FaceAttractiveness,2022.2.5,145.05850933086427,
treatment,0% Never,100% Always,images\ NASALTIP_CFD_WF_250_167_N.png,0,0,0,0,1,30,125,74,,,,,,,,,,,,,,,,,,,,,,,,,,,,2023-04-07_19h15.07.036,FaceAttractiveness,2022.2.5,145.05850933086427,
treatment,0% Never,100% Always,"images\ NASALTIP_136_M_M_N_A.png
",0,0,0,0,1,31,126,60,,,,,,,,,,,,,,,,,,,,,,,,,,,,2023-04-07_19h15.07.036,FaceAttractiveness,2022.2.5,145.05850933086427,
treatment,0% Never,100% Always,"images\ LCHEEK_CFD_BM_234_172_N.png
",0,0,0,0,1,32,127,30,,,,,,,,,,,,,,,,,,,,,,,,,,,,2023-04-07_19h15.07.036,FaceAttractiveness,2022.2.5,145.05850933086427,
treatment,0% Never,100% Always,images\ LCHEEK_006_M_F_N_A.png,0,0,0,0,1,33,128,19,,,,,,,,,,,,,,,,,,,,,,,,,,,,2023-04-07_19h15.07.036,FaceAttractiveness,2022.2.5,145.05850933086427,
treatment,0% Never,100% Always,"images\ LCHEEK_136_M_M_N_A.png
",0,0,0,0,1,34,129,22,,,,,,,,,,,,,,,,,,,,,,,,,,,,2023-04-07_19h15.07.036,FaceAttractiveness,2022.2.5,145.05850933086427,
treatment,0% Never,100% Always,images\FOREHEAD_CFD_WF_002_004_N.png,0,0,0,0,1,35,130,15,,,,,,,,,,,,,,,,,,,,,,,,,,,,2023-04-07_19h15.07.036,FaceAttractiveness,2022.2.5,145.05850933086427,
treatment,0% Never,100% Always,"images\ RCHEEK_CFD_AM_233_236_N.png
",0,0,0,0,1,36,131,83,,,,,,,,,,,,,,,,,,,,,,,,,,,,2023-04-07_19h15.07.036,FaceAttractiveness,2022.2.5,145.05850933086427,
treatment,0% Never,100% Always,images\ LIP_CFD_BF_224_002_N.png,0,0,0,0,1,37,132,47,,,,,,,,,,,,,,,,,,,,,,,,,,,,2023-04-07_19h15.07.036,FaceAttractiveness,2022.2.5,145.05850933086427,
treatment,0% Never,100% Always,images\ LCHEEK_CFD_WF_200_099_N.png,0,0,0,0,1,38,133,35,,,,,,,,,,,,,,,,,,,,,,,,,,,,2023-04-07_19h15.07.036,FaceAttractiveness,2022.2.5,145.05850933086427,
treatment,0% Never,100% Always,images\ NASALTIP_CFD_BF_214_308_N.png,0,0,0,0,1,39,134,65,,,,,,,,,,,,,,,,,,,,,,,,,,,,2023-04-07_19h15.07.036,FaceAttractiveness,2022.2.5,145.05850933086427,
treatment,0% Never,100% Always,images\FOREHEAD_CFD_WF_200_099_N.png,0,0,0,0,1,40,135,16,,,,,,,,,,,,,,,,,,,,,,,,,,,,2023-04-07_19h15.07.036,FaceAttractiveness,2022.2.5,145.05850933086427,
treatment,0% Never,100% Always,"images\ RCHEEK_CFD_WF_002_004_N.png
",0,0,0,0,1,41,136,91,,,,,,,,,,,,,,,,,,,,,,,,,,,,2023-04-07_19h15.07.036,FaceAttractiveness,2022.2.5,145.05850933086427,
treatment,0% Never,100% Always,images\FOREHEAD_CFD_AF_231_357_N.png,0,0,0,0,1,42,137,4,,,,,,,,,,,,,,,,,,,,,,,,,,,,2023-04-07_19h15.07.036,FaceAttractiveness,2022.2.5,145.05850933086427,
treatment,0% Never,100% Always,images\FOREHEAD_CFD_BF_214_308_N.png,0,0,0,0,1,43,138,8,,,,,,,,,,,,,,,,,,,,,,,,,,,,2023-04-07_19h15.07.036,FaceAttractiveness,2022.2.5,145.05850933086427,
treatment,0% Never,100% Always,images\ RCHEEK_CFD_LM_203_026_N.png,0,0,0,0,1,44,139,90,,,,,,,,,,,,,,,,,,,,,,,,,,,,2023-04-07_19h15.07.036,FaceAttractiveness,2022.2.5,145.05850933086427,
treatment,0% Never,100% Always,images\ NASALTIP_CFD_LF_224_176_N.png,0,0,0,0,1,45,140,69,,,,,,,,,,,,,,,,,,,,,,,,,,,,2023-04-07_19h15.07.036,FaceAttractiveness,2022.2.5,145.05850933086427,
treatment,0% Never,100% Always,images\FOREHEAD_CFD_WF_250_167_N.png,0,0,0,0,1,46,141,17,,,,,,,,,,,,,,,,,,,,,,,,,,,,2023-04-07_19h15.07.036,FaceAttractiveness,2022.2.5,145.05850933086427,
treatment,0% Never,100% Always,images\FOREHEAD_CFD_AM_233_236_N.png,0,0,0,0,1,47,142,7,,,,,,,,,,,,,,,,,,,,,,,,,,,,2023-04-07_19h15.07.036,FaceAttractiveness,2022.2.5,145.05850933086427,
treatment,0% Never,100% Always,"images\ LIP_CFD_AM_233_236_N.png
",0,0,0,0,1,48,143,45,,,,,,,,,,,,,,,,,,,,,,,,,,,,2023-04-07_19h15.07.036,FaceAttractiveness,2022.2.5,145.05850933086427,
treatment,0% Never,100% Always,images\ NASALTIP_CFD_WF_200_099_N.png,0,0,0,0,1,49,144,73,,,,,,,,,,,,,,,,,,,,,,,,,,,,2023-04-07_19h15.07.036,FaceAttractiveness,2022.2.5,145.05850933086427,
treatment,0% Never,100% Always,images\ NASALTIP_006_M_F_N_A.png,0,0,0,0,1,50,145,57,,,,,,,,,,,,,,,,,,,,,,,,,,,,2023-04-07_19h15.07.036,FaceAttractiveness,2022.2.5,145.05850933086427,
treatment,0% Never,100% Always,images\ LIP_035_M_F_N_A.png,0,0,0,0,1,51,146,39,,,,,,,,,,,,,,,,,,,,,,,,,,,,2023-04-07_19h15.07.036,FaceAttractiveness,2022.2.5,145.05850933086427,
treatment,0% Never,100% Always,images\ LIP_CFD_AF_237_223_N.png,0,0,0,0,1,52,147,43,,,,,,,,,,,,,,,,,,,,,,,,,,,,2023-04-07_19h15.07.036,FaceAttractiveness,2022.2.5,145.05850933086427,
treatment,0% Never,100% Always,images\ NASALTIP_CFD_BM_213_134_N.png,0,0,0,0,1,53,148,67,,,,,,,,,,,,,,,,,,,,,,,,,,,,2023-04-07_19h15.07.036,FaceAttractiveness,2022.2.5,145.05850933086427,
treatment,0% Never,100% Always,images\ RCHEEK_CFD_AF_245_143_N.png,0,0,0,0,1,54,149,82,,,,,,,,,,,,,,,,,,,,,,,,,,,,2023-04-07_19h15.07.036,FaceAttractiveness,2022.2.5,145.05850933086427,
treatment,0% Never,100% Always,images\ LIP_CFD_BF_214_308_N.png,0,0,0,0,1,55,150,46,,,,,,,,,,,,,,,,,,,,,,,,,,,,2023-04-07_19h15.07.036,FaceAttractiveness,2022.2.5,145.05850933086427,
treatment,0% Never,100% Always,images\ RCHEEK_CFD_WM_212_097_N.png,0,0,0,0,1,56,151,94,,,,,,,,,,,,,,,,,,,,,,,,,,,,2023-04-07_19h15.07.036,FaceAttractiveness,2022.2.5,145.05850933086427,
treatment,0% Never,100% Always,images\ RCHEEK_CFD_AF_231_357_N.png,0,0,0,0,1,57,152,80,,,,,,,,,,,,,,,,,,,,,,,,,,,,2023-04-07_19h15.07.036,FaceAttractiveness,2022.2.5,145.05850933086427,
treatment,0% Never,100% Always,"images\ RCHEEK_CFD_BM_234_172_N.png
",0,0,0,0,1,58,153,87,,,,,,,,,,,,,,,,,,,,,,,,,,,,2023-04-07_19h15.07.036,FaceAttractiveness,2022.2.5,145.05850933086427,
treatment,0% Never,100% Always,images\FOREHEAD_006_M_F_N_A.png,0,0,0,0,1,59,154,0,,,,,,,,,,,,,,,,,,,,,,,,,,,,2023-04-07_19h15.07.036,FaceAttractiveness,2022.2.5,145.05850933086427,
treatment,0% Never,100% Always,images\ LCHEEK_CFD_WM_212_097_N.png,0,0,0,0,1,60,155,37,,,,,,,,,,,,,,,,,,,,,,,,,,,,2023-04-07_19h15.07.036,FaceAttractiveness,2022.2.5,145.05850933086427,
treatment,0% Never,100% Always,images\ LIP_CFD_LM_201_057_N.png,0,0,0,0,1,61,156,51,,,,,,,,,,,,,,,,,,,,,,,,,,,,2023-04-07_19h15.07.036,FaceAttractiveness,2022.2.5,145.05850933086427,
treatment,0% Never,100% Always,images\ LIP_CFD_AF_231_357_N.png,0,0,0,0,1,62,157,42,,,,,,,,,,,,,,,,,,,,,,,,,,,,2023-04-07_19h15.07.036,FaceAttractiveness,2022.2.5,145.05850933086427,
treatment,0% Never,100% Always,"images\ LIP_CFD_BM_234_172_N.png
",0,0,0,0,1,63,158,49,,,,,,,,,,,,,,,,,,,,,,,,,,,,2023-04-07_19h15.07.036,FaceAttractiveness,2022.2.5,145.05850933086427,
treatment,0% Never,100% Always,images\FOREHEAD_CFD_AF_237_223_N.png,0,0,0,0,1,64,159,5,,,,,,,,,,,,,,,,,,,,,,,,,,,,2023-04-07_19h15.07.036,FaceAttractiveness,2022.2.5,145.05850933086427,
treatment,0% Never,100% Always,images\FOREHEAD_136_M_M_N_A.png,0,0,0,0,1,65,160,3,,,,,,,,,,,,,,,,,,,,,,,,,,,,2023-04-07_19h15.07.036,FaceAttractiveness,2022.2.5,145.05850933086427,
treatment,0% Never,100% Always,images\ LCHEEK_CFD_LF_224_176_N.png,0,0,0,0,1,66,161,31,,,,,,,,,,,,,,,,,,,,,,,,,,,,2023-04-07_19h15.07.036,FaceAttractiveness,2022.2.5,145.05850933086427,
treatment,0% Never,100% Always,images\ RCHEEK_CFD_LF_224_176_N.png,0,0,0,0,1,67,162,88,,,,,,,,,,,,,,,,,,,,,,,,,,,,2023-04-07_19h15.07.036,FaceAttractiveness,2022.2.5,145.05850933086427,
treatment,0% Never,100% Always,images\ NASALTIP_CFD_WM_212_097_N.png,0,0,0,0,1,68,163,75,,,,,,,,,,,,,,,,,,,,,,,,,,,,2023-04-07_19h15.07.036,FaceAttractiveness,2022.2.5,145.05850933086427,
treatment,0% Never,100% Always,images\FOREHEAD_CFD_AF_245_143_N.png,0,0,0,0,1,69,164,6,,,,,,,,,,,,,,,,,,,,,,,,,,,,2023-04-07_19h15.07.036,FaceAttractiveness,2022.2.5,145.05850933086427,
treatment,0% Never,100% Always,images\ LIP_CFD_LF_224_176_N.png,0,0,0,0,1,70,165,50,,,,,,,,,,,,,,,,,,,,,,,,,,,,2023-04-07_19h15.07.036,FaceAttractiveness,2022.2.5,145.05850933086427,
treatment,0% Never,100% Always,images\ LCHEEK_CFD_BM_213_134_N.png,0,0,0,0,1,71,166,29,,,,,,,,,,,,,,,,,,,,,,,,,,,,2023-04-07_19h15.07.036,FaceAttractiveness,2022.2.5,145.05850933086427,
treatment,0% Never,100% Always,images\ LCHEEK_035_M_F_N_A.png,0,0,0,0,1,72,167,20,,,,,,,,,,,,,,,,,,,,,,,,,,,,2023-04-07_19h15.07.036,FaceAttractiveness,2022.2.5,145.05850933086427,
treatment,0% Never,100% Always,images\ RCHEEK_CFD_BM_213_134_N.png,0,0,0,0,1,73,168,86,,,,,,,,,,,,,,,,,,,,,,,,,,,,2023-04-07_19h15.07.036,FaceAttractiveness,2022.2.5,145.05850933086427,
treatment,0% Never,100% Always,images\ NASALTIP_CFD_AF_245_143_N.png,0,0,0,0,1,74,169,63,,,,,,,,,,,,,,,,,,,,,,,,,,,,2023-04-07_19h15.07.036,FaceAttractiveness,2022.2.5,145.05850933086427,
treatment,0% Never,100% Always,images\FOREHEAD_CFD_LM_201_057_N.png,0,0,0,0,1,75,170,13,,,,,,,,,,,,,,,,,,,,,,,,,,,,2023-04-07_19h15.07.036,FaceAttractiveness,2022.2.5,145.05850933086427,
treatment,0% Never,100% Always,images\FOREHEAD_CFD_LM_203_026_N.png,0,0,0,0,1,76,171,14,,,,,,,,,,,,,,,,,,,,,,,,,,,,2023-04-07_19h15.07.036,FaceAttractiveness,2022.2.5,145.05850933086427,
treatment,0% Never,100% Always,images\ LCHEEK_CFD_BF_224_002_N.png,0,0,0,0,1,77,172,28,,,,,,,,,,,,,,,,,,,,,,,,,,,,2023-04-07_19h15.07.036,FaceAttractiveness,2022.2.5,145.05850933086427,
treatment,0% Never,100% Always,images\ RCHEEK_CFD_AF_237_223_N.png,0,0,0,0,1,78,173,81,,,,,,,,,,,,,,,,,,,,,,,,,,,,2023-04-07_19h15.07.036,FaceAttractiveness,2022.2.5,145.05850933086427,
treatment,0% Never,100% Always,images\ LCHEEK_CFD_AF_231_357_N.png,0,0,0,0,1,79,174,23,,,,,,,,,,,,,,,,,,,,,,,,,,,,2023-04-07_19h15.07.036,FaceAttractiveness,2022.2.5,145.05850933086427,
treatment,0% Never,100% Always,images\FOREHEAD_CFD_WM_212_097_N.png,0,0,0,0,1,80,175,18,,,,,,,,,,,,,,,,,,,,,,,,,,,,2023-04-07_19h15.07.036,FaceAttractiveness,2022.2.5,145.05850933086427,
treatment,0% Never,100% Always,images\ LIP_006_M_F_N_A.png,0,0,0,0,1,81,176,38,,,,,,,,,,,,,,,,,,,,,,,,,,,,2023-04-07_19h15.07.036,FaceAttractiveness,2022.2.5,145.05850933086427,
treatment,0% Never,100% Always,"images\ RCHEEK_136_M_M_N_A.png
",0,0,0,0,1,82,177,79,,,,,,,,,,,,,,,,,,,,,,,,,,,,2023-04-07_19h15.07.036,FaceAttractiveness,2022.2.5,145.05850933086427,
treatment,0% Never,100% Always,images\ RCHEEK_CFD_WF_250_167_N.png,0,0,0,0,1,83,178,93,,,,,,,,,,,,,,,,,,,,,,,,,,,,2023-04-07_19h15.07.036,FaceAttractiveness,2022.2.5,145.05850933086427,
treatment,0% Never,100% Always,"images\ LCHEEK_CFD_WF_002_004_N.png
",0,0,0,0,1,84,179,34,,,,,,,,,,,,,,,,,,,,,,,,,,,,2023-04-07_19h15.07.036,FaceAttractiveness,2022.2.5,145.05850933086427,
treatment,0% Never,100% Always,"images\ NASALTIP_CFD_AM_233_236_N.png
",0,0,0,0,1,85,180,64,,,,,,,,,,,,,,,,,,,,,,,,,,,,2023-04-07_19h15.07.036,FaceAttractiveness,2022.2.5,145.05850933086427,
treatment,0% Never,100% Always,images\ LIP_CFD_LM_203_026_N.png,0,0,0,0,1,86,181,52,,,,,,,,,,,,,,,,,,,,,,,,,,,,2023-04-07_19h15.07.036,FaceAttractiveness,2022.2.5,145.05850933086427,
treatment,0% Never,100% Always,images\ LIP_CFD_BM_213_134_N.png,0,0,0,0,1,87,182,48,,,,,,,,,,,,,,,,,,,,,,,,,,,,2023-04-07_19h15.07.036,FaceAttractiveness,2022.2.5,145.05850933086427,
treatment,0% Never,100% Always,images\ LCHEEK_CFD_LM_203_026_N.png,0,0,0,0,1,88,183,33,,,,,,,,,,,,,,,,,,,,,,,,,,,,2023-04-07_19h15.07.036,FaceAttractiveness,2022.2.5,145.05850933086427,
treatment,0% Never,100% Always,"images\ NASALTIP_CFD_BM_234_172_N.png
",0,0,0,0,1,89,184,68,,,,,,,,,,,,,,,,,,,,,,,,,,,,2023-04-07_19h15.07.036,FaceAttractiveness,2022.2.5,145.05850933086427,
treatment,0% Never,100% Always,"images\ LCHEEK_CFD_AM_233_236_N.png
",0,0,0,0,1,90,185,26,,,,,,,,,,,,,,,,,,,,,,,,,,,,2023-04-07_19h15.07.036,FaceAttractiveness,2022.2.5,145.05850933086427,
treatment,0% Never,100% Always,images\ LCHEEK_087_M_M_N_A.png,0,0,0,0,1,91,186,21,,,,,,,,,,,,,,,,,,,,,,,,,,,,2023-04-07_19h15.07.036,FaceAttractiveness,2022.2.5,145.05850933086427,
treatment,0% Never,100% Always,images\ NASALTIP_035_M_F_N_A.png,0,0,0,0,1,92,187,58,,,,,,,,,,,,,,,,,,,,,,,,,,,,2023-04-07_19h15.07.036,FaceAttractiveness,2022.2.5,145.05850933086427,
treatment,0% Never,100% Always,images\ LIP_CFD_AF_245_143_N.png,0,0,0,0,1,93,188,44,,,,,,,,,,,,,,,,,,,,,,,,,,,,2023-04-07_19h15.07.036,FaceAttractiveness,2022.2.5,145.05850933086427,
treatment,0% Never,100% Always,"images\ NASALTIP_CFD_WF_002_004_N.png
",0,0,0,0,1,94,189,72,,,,,,,,,,,,,,,,,,,,,,,,,,,,2023-04-07_19h15.07.036,FaceAttractiveness,2022.2.5,145.05850933086427,
treatment,0% Never,100% Always,images\ RCHEEK_006_M_F_N_A.png,0,0,0,0,2,0,190,76,,,,,,,,,,,,,,,,,,,,,,,,,,,,2023-04-07_19h15.07.036,FaceAttractiveness,2022.2.5,145.05850933086427,
treatment,0% Never,100% Always,images\ NASALTIP_CFD_WM_212_097_N.png,0,0,0,0,2,1,191,75,,,,,,,,,,,,,,,,,,,,,,,,,,,,2023-04-07_19h15.07.036,FaceAttractiveness,2022.2.5,145.05850933086427,
treatment,0% Never,100% Always,images\FOREHEAD_006_M_F_N_A.png,0,0,0,0,2,2,192,0,,,,,,,,,,,,,,,,,,,,,,,,,,,,2023-04-07_19h15.07.036,FaceAttractiveness,2022.2.5,145.05850933086427,
treatment,0% Never,100% Always,"images\ LCHEEK_CFD_AM_233_236_N.png
",0,0,0,0,2,3,193,26,,,,,,,,,,,,,,,,,,,,,,,,,,,,2023-04-07_19h15.07.036,FaceAttractiveness,2022.2.5,145.05850933086427,
treatment,0% Never,100% Always,images\ LCHEEK_CFD_WM_212_097_N.png,0,0,0,0,2,4,194,37,,,,,,,,,,,,,,,,,,,,,,,,,,,,2023-04-07_19h15.07.036,FaceAttractiveness,2022.2.5,145.05850933086427,
treatment,0% Never,100% Always,images\ NASALTIP_006_M_F_N_A.png,0,0,0,0,2,5,195,57,,,,,,,,,,,,,,,,,,,,,,,,,,,,2023-04-07_19h15.07.036,FaceAttractiveness,2022.2.5,145.05850933086427,
treatment,0% Never,100% Always,images\ LCHEEK_CFD_BM_213_134_N.png,0,0,0,0,2,6,196,29,,,,,,,,,,,,,,,,,,,,,,,,,,,,2023-04-07_19h15.07.036,FaceAttractiveness,2022.2.5,145.05850933086427,
treatment,0% Never,100% Always,images\ LCHEEK_CFD_AF_245_143_N.png,0,0,0,0,2,7,197,25,,,,,,,,,,,,,,,,,,,,,,,,,,,,2023-04-07_19h15.07.036,FaceAttractiveness,2022.2.5,145.05850933086427,
treatment,0% Never,100% Always,"images\ LCHEEK_CFD_WF_002_004_N.png
",0,0,0,0,2,8,198,34,,,,,,,,,,,,,,,,,,,,,,,,,,,,2023-04-07_19h15.07.036,FaceAttractiveness,2022.2.5,145.05850933086427,
treatment,0% Never,100% Always,images\ NASALTIP_CFD_AF_245_143_N.png,0,0,0,0,2,9,199,63,,,,,,,,,,,,,,,,,,,,,,,,,,,,2023-04-07_19h15.07.036,FaceAttractiveness,2022.2.5,145.05850933086427,
treatment,0% Never,100% Always,images\ LCHEEK_CFD_WF_250_167_N.png,0,0,0,0,2,10,200,36,,,,,,,,,,,,,,,,,,,,,,,,,,,,2023-04-07_19h15.07.036,FaceAttractiveness,2022.2.5,145.05850933086427,
treatment,0% Never,100% Always,images\ LIP_035_M_F_N_A.png,0,0,0,0,2,11,201,39,,,,,,,,,,,,,,,,,,,,,,,,,,,,2023-04-07_19h15.07.036,FaceAttractiveness,2022.2.5,145.05850933086427,
treatment,0% Never,100% Always,images\FOREHEAD_CFD_AF_237_223_N.png,0,0,0,0,2,12,202,5,,,,,,,,,,,,,,,,,,,,,,,,,,,,2023-04-07_19h15.07.036,FaceAttractiveness,2022.2.5,145.05850933086427,
treatment,0% Never,100% Always,images\ LCHEEK_CFD_AF_237_223_N.png,0,0,0,0,2,13,203,24,,,,,,,,,,,,,,,,,,,,,,,,,,,,2023-04-07_19h15.07.036,FaceAttractiveness,2022.2.5,145.05850933086427,
treatment,0% Never,100% Always,images\FOREHEAD_CFD_WF_200_099_N.png,0,0,0,0,2,14,204,16,,,,,,,,,,,,,,,,,,,,,,,,,,,,2023-04-07_19h15.07.036,FaceAttractiveness,2022.2.5,145.05850933086427,
treatment,0% Never,100% Always,images\FOREHEAD_CFD_BF_214_308_N.png,0,0,0,0,2,15,205,8,,,,,,,,,,,,,,,,,,,,,,,,,,,,2023-04-07_19h15.07.036,FaceAttractiveness,2022.2.5,145.05850933086427,
treatment,0% Never,100% Always,images\ RCHEEK_CFD_AF_245_143_N.png,0,0,0,0,2,16,206,82,,,,,,,,,,,,,,,,,,,,,,,,,,,,2023-04-07_19h15.07.036,FaceAttractiveness,2022.2.5,145.05850933086427,
treatment,0% Never,100% Always,images\ LIP_CFD_BF_224_002_N.png,0,0,0,0,2,17,207,47,,,,,,,,,,,,,,,,,,,,,,,,,,,,2023-04-07_19h15.07.036,FaceAttractiveness,2022.2.5,145.05850933086427,
treatment,0% Never,100% Always,images\ LCHEEK_CFD_BF_214_308_N.png,0,0,0,0,2,18,208,27,,,,,,,,,,,,,,,,,,,,,,,,,,,,2023-04-07_19h15.07.036,FaceAttractiveness,2022.2.5,145.05850933086427,
treatment,0% Never,100% Always,images\ LIP_006_M_F_N_A.png,0,0,0,0,2,19,209,38,,,,,,,,,,,,,,,,,,,,,,,,,,,,2023-04-07_19h15.07.036,FaceAttractiveness,2022.2.5,145.05850933086427,
treatment,0% Never,100% Always,images\ LCHEEK_CFD_WF_200_099_N.png,0,0,0,0,2,20,210,35,,,,,,,,,,,,,,,,,,,,,,,,,,,,2023-04-07_19h15.07.036,FaceAttractiveness,2022.2.5,145.05850933086427,
treatment,0% Never,100% Always,images\ RCHEEK_CFD_BM_213_134_N.png,0,0,0,0,2,21,211,86,,,,,,,,,,,,,,,,,,,,,,,,,,,,2023-04-07_19h15.07.036,FaceAttractiveness,2022.2.5,145.05850933086427,
treatment,0% Never,100% Always,images\ RCHEEK_CFD_LF_224_176_N.png,0,0,0,0,2,22,212,88,,,,,,,,,,,,,,,,,,,,,,,,,,,,2023-04-07_19h15.07.036,FaceAttractiveness,2022.2.5,145.05850933086427,
treatment,0% Never,100% Always,images\ NASALTIP_CFD_AF_237_223_N.png,0,0,0,0,2,23,213,62,,,,,,,,,,,,,,,,,,,,,,,,,,,,2023-04-07_19h15.07.036,FaceAttractiveness,2022.2.5,145.05850933086427,
treatment,0% Never,100% Always,images\ NASALTIP_035_M_F_N_A.png,0,0,0,0,2,24,214,58,,,,,,,,,,,,,,,,,,,,,,,,,,,,2023-04-07_19h15.07.036,FaceAttractiveness,2022.2.5,145.05850933086427,
treatment,0% Never,100% Always,images\ LIP_CFD_AF_237_223_N.png,0,0,0,0,2,25,215,43,,,,,,,,,,,,,,,,,,,,,,,,,,,,2023-04-07_19h15.07.036,FaceAttractiveness,2022.2.5,145.05850933086427,
treatment,0% Never,100% Always,images\FOREHEAD_CFD_WF_002_004_N.png,0,0,0,0,2,26,216,15,,,,,,,,,,,,,,,,,,,,,,,,,,,,2023-04-07_19h15.07.036,FaceAttractiveness,2022.2.5,145.05850933086427,
treatment,0% Never,100% Always,images\FOREHEAD_CFD_LM_203_026_N.png,0,0,0,0,2,27,217,14,,,,,,,,,,,,,,,,,,,,,,,,,,,,2023-04-07_19h15.07.036,FaceAttractiveness,2022.2.5,145.05850933086427,
treatment,0% Never,100% Always,images\ LIP_CFD_WF_200_099_N.png,0,0,0,0,2,28,218,54,,,,,,,,,,,,,,,,,,,,,,,,,,,,2023-04-07_19h15.07.036,FaceAttractiveness,2022.2.5,145.05850933086427,
treatment,0% Never,100% Always,"images\ NASALTIP_CFD_WF_002_004_N.png
",0,0,0,0,2,29,219,72,,,,,,,,,,,,,,,,,,,,,,,,,,,,2023-04-07_19h15.07.036,FaceAttractiveness,2022.2.5,145.05850933086427,
treatment,0% Never,100% Always,images\ NASALTIP_CFD_AF_231_357_N.png,0,0,0,0,2,30,220,61,,,,,,,,,,,,,,,,,,,,,,,,,,,,2023-04-07_19h15.07.036,FaceAttractiveness,2022.2.5,145.05850933086427,
treatment,0% Never,100% Always,images\ RCHEEK_087_M_M_N_A.png,0,0,0,0,2,31,221,78,,,,,,,,,,,,,,,,,,,,,,,,,,,,2023-04-07_19h15.07.036,FaceAttractiveness,2022.2.5,145.05850933086427,
treatment,0% Never,100% Always,images\ NASALTIP_CFD_BM_213_134_N.png,0,0,0,0,2,32,222,67,,,,,,,,,,,,,,,,,,,,,,,,,,,,2023-04-07_19h15.07.036,FaceAttractiveness,2022.2.5,145.05850933086427,
treatment,0% Never,100% Always,"images\ LIP_CFD_BM_234_172_N.png
",0,0,0,0,2,33,223,49,,,,,,,,,,,,,,,,,,,,,,,,,,,,2023-04-07_19h15.07.036,FaceAttractiveness,2022.2.5,145.05850933086427,
treatment,0% Never,100% Always,images\ LCHEEK_CFD_AF_231_357_N.png,0,0,0,0,2,34,224,23,,,,,,,,,,,,,,,,,,,,,,,,,,,,2023-04-07_19h15.07.036,FaceAttractiveness,2022.2.5,145.05850933086427,
treatment,0% Never,100% Always,images\ LIP_CFD_LM_203_026_N.png,0,0,0,0,2,35,225,52,,,,,,,,,,,,,,,,,,,,,,,,,,,,2023-04-07_19h15.07.036,FaceAttractiveness,2022.2.5,145.05850933086427,
treatment,0% Never,100% Always,"images\ RCHEEK_CFD_BM_234_172_N.png
",0,0,0,0,2,36,226,87,,,,,,,,,,,,,,,,,,,,,,,,,,,,2023-04-07_19h15.07.036,FaceAttractiveness,2022.2.5,145.05850933086427,
treatment,0% Never,100% Always,"images\ LCHEEK_136_M_M_N_A.png
",0,0,0,0,2,37,227,22,,,,,,,,,,,,,,,,,,,,,,,,,,,,2023-04-07_19h15.07.036,FaceAttractiveness,2022.2.5,145.05850933086427,
treatment,0% Never,100% Always,images\ LIP_CFD_AF_245_143_N.png,0,0,0,0,2,38,228,44,,,,,,,,,,,,,,,,,,,,,,,,,,,,2023-04-07_19h15.07.036,FaceAttractiveness,2022.2.5,145.05850933086427,
treatment,0% Never,100% Always,images\FOREHEAD_CFD_LM_201_057_N.png,0,0,0,0,2,39,229,13,,,,,,,,,,,,,,,,,,,,,,,,,,,,2023-04-07_19h15.07.036,FaceAttractiveness,2022.2.5,145.05850933086427,
treatment,0% Never,100% Always,images\ LCHEEK_CFD_LF_224_176_N.png,0,0,0,0,2,40,230,31,,,,,,,,,,,,,,,,,,,,,,,,,,,,2023-04-07_19h15.07.036,FaceAttractiveness,2022.2.5,145.05850933086427,
treatment,0% Never,100% Always,images\ LIP_CFD_LF_224_176_N.png,0,0,0,0,2,41,231,50,,,,,,,,,,,,,,,,,,,,,,,,,,,,2023-04-07_19h15.07.036,FaceAttractiveness,2022.2.5,145.05850933086427,
treatment,0% Never,100% Always,"images\ RCHEEK_CFD_AM_233_236_N.png
",0,0,0,0,2,42,232,83,,,,,,,,,,,,,,,,,,,,,,,,,,,,2023-04-07_19h15.07.036,FaceAttractiveness,2022.2.5,145.05850933086427,
treatment,0% Never,100% Always,"images\ NASALTIP_CFD_AM_233_236_N.png
",0,0,0,0,2,43,233,64,,,,,,,,,,,,,,,,,,,,,,,,,,,,2023-04-07_19h15.07.036,FaceAttractiveness,2022.2.5,145.05850933086427,
treatment,0% Never,100% Always,images\ RCHEEK_CFD_LM_201_057_N.png,0,0,0,0,2,44,234,89,,,,,,,,,,,,,,,,,,,,,,,,,,,,2023-04-07_19h15.07.036,FaceAttractiveness,2022.2.5,145.05850933086427,
treatment,0% Never,100% Always,images\ LCHEEK_035_M_F_N_A.png,0,0,0,0,2,45,235,20,,,,,,,,,,,,,,,,,,,,,,,,,,,,2023-04-07_19h15.07.036,FaceAttractiveness,2022.2.5,145.05850933086427,
treatment,0% Never,100% Always,images\ LCHEEK_CFD_LM_201_057_N.png,0,0,0,0,2,46,236,32,,,,,,,,,,,,,,,,,,,,,,,,,,,,2023-04-07_19h15.07.036,FaceAttractiveness,2022.2.5,145.05850933086427,
treatment,0% Never,100% Always,"images\ LIP_136_M_M_N_A.png
",0,0,0,0,2,47,237,41,,,,,,,,,,,,,,,,,,,,,,,,,,,,2023-04-07_19h15.07.036,FaceAttractiveness,2022.2.5,145.05850933086427,
treatment,0% Never,100% Always,images\ RCHEEK_CFD_WM_212_097_N.png,0,0,0,0,2,48,238,94,,,,,,,,,,,,,,,,,,,,,,,,,,,,2023-04-07_19h15.07.036,FaceAttractiveness,2022.2.5,145.05850933086427,
treatment,0% Never,100% Always,images\FOREHEAD_CFD_WM_212_097_N.png,0,0,0,0,2,49,239,18,,,,,,,,,,,,,,,,,,,,,,,,,,,,2023-04-07_19h15.07.036,FaceAttractiveness,2022.2.5,145.05850933086427,
treatment,0% Never,100% Always,images\ RCHEEK_CFD_BF_214_308_N.png,0,0,0,0,2,50,240,84,,,,,,,,,,,,,,,,,,,,,,,,,,,,2023-04-07_19h15.07.036,FaceAttractiveness,2022.2.5,145.05850933086427,
treatment,0% Never,100% Always,images\FOREHEAD_CFD_AF_231_357_N.png,0,0,0,0,2,51,241,4,,,,,,,,,,,,,,,,,,,,,,,,,,,,2023-04-07_19h15.07.036,FaceAttractiveness,2022.2.5,145.05850933086427,
treatment,0% Never,100% Always,images\ NASALTIP_CFD_BF_224_002_N.png,0,0,0,0,2,52,242,66,,,,,,,,,,,,,,,,,,,,,,,,,,,,2023-04-07_19h15.07.036,FaceAttractiveness,2022.2.5,145.05850933086427,
treatment,0% Never,100% Always,images\ RCHEEK_CFD_AF_237_223_N.png,0,0,0,0,2,53,243,81,,,,,,,,,,,,,,,,,,,,,,,,,,,,2023-04-07_19h15.07.036,FaceAttractiveness,2022.2.5,145.05850933086427,
treatment,0% Never,100% Always,"images\ NASALTIP_CFD_BM_234_172_N.png
",0,0,0,0,2,54,244,68,,,,,,,,,,,,,,,,,,,,,,,,,,,,2023-04-07_19h15.07.036,FaceAttractiveness,2022.2.5,145.05850933086427,
treatment,0% Never,100% Always,images\ RCHEEK_035_M_F_N_A.png,0,0,0,0,2,55,245,77,,,,,,,,,,,,,,,,,,,,,,,,,,,,2023-04-07_19h15.07.036,FaceAttractiveness,2022.2.5,145.05850933086427,
treatment,0% Never,100% Always,images\FOREHEAD_CFD_BF_224_002_N.png,0,0,0,0,2,56,246,9,,,,,,,,,,,,,,,,,,,,,,,,,,,,2023-04-07_19h15.07.036,FaceAttractiveness,2022.2.5,145.05850933086427,
treatment,0% Never,100% Always,images\ LCHEEK_CFD_BF_224_002_N.png,0,0,0,0,2,57,247,28,,,,,,,,,,,,,,,,,,,,,,,,,,,,2023-04-07_19h15.07.036,FaceAttractiveness,2022.2.5,145.05850933086427,
treatment,0% Never,100% Always,"images\ RCHEEK_CFD_WF_002_004_N.png
",0,0,0,0,2,58,248,91,,,,,,,,,,,,,,,,,,,,,,,,,,,,2023-04-07_19h15.07.036,FaceAttractiveness,2022.2.5,145.05850933086427,
treatment,0% Never,100% Always,images\ RCHEEK_CFD_WF_250_167_N.png,0,0,0,0,2,59,249,93,,,,,,,,,,,,,,,,,,,,,,,,,,,,2023-04-07_19h15.07.036,FaceAttractiveness,2022.2.5,145.05850933086427,
treatment,0% Never,100% Always,images\FOREHEAD_136_M_M_N_A.png,0,0,0,0,2,60,250,3,,,,,,,,,,,,,,,,,,,,,,,,,,,,2023-04-07_19h15.07.036,FaceAttractiveness,2022.2.5,145.05850933086427,
treatment,0% Never,100% Always,images\ LCHEEK_087_M_M_N_A.png,0,0,0,0,2,61,251,21,,,,,,,,,,,,,,,,,,,,,,,,,,,,2023-04-07_19h15.07.036,FaceAttractiveness,2022.2.5,145.05850933086427,
treatment,0% Never,100% Always,images\ LCHEEK_CFD_LM_203_026_N.png,0,0,0,0,2,62,252,33,,,,,,,,,,,,,,,,,,,,,,,,,,,,2023-04-07_19h15.07.036,FaceAttractiveness,2022.2.5,145.05850933086427,
treatment,0% Never,100% Always,images\ NASALTIP_CFD_BF_214_308_N.png,0,0,0,0,2,63,253,65,,,,,,,,,,,,,,,,,,,,,,,,,,,,2023-04-07_19h15.07.036,FaceAttractiveness,2022.2.5,145.05850933086427,
treatment,0% Never,100% Always,images\ RCHEEK_CFD_BF_224_002_N.png,0,0,0,0,2,64,254,85,,,,,,,,,,,,,,,,,,,,,,,,,,,,2023-04-07_19h15.07.036,FaceAttractiveness,2022.2.5,145.05850933086427,
treatment,0% Never,100% Always,"images\ LIP_CFD_AM_233_236_N.png
",0,0,0,0,2,65,255,45,,,,,,,,,,,,,,,,,,,,,,,,,,,,2023-04-07_19h15.07.036,FaceAttractiveness,2022.2.5,145.05850933086427,
treatment,0% Never,100% Always,images\ RCHEEK_CFD_LM_203_026_N.png,0,0,0,0,2,66,256,90,,,,,,,,,,,,,,,,,,,,,,,,,,,,2023-04-07_19h15.07.036,FaceAttractiveness,2022.2.5,145.05850933086427,
treatment,0% Never,100% Always,images\ LIP_CFD_BF_214_308_N.png,0,0,0,0,2,67,257,46,,,,,,,,,,,,,,,,,,,,,,,,,,,,2023-04-07_19h15.07.036,FaceAttractiveness,2022.2.5,145.05850933086427,
treatment,0% Never,100% Always,images\ LIP_CFD_LM_201_057_N.png,0,0,0,0,2,68,258,51,,,,,,,,,,,,,,,,,,,,,,,,,,,,2023-04-07_19h15.07.036,FaceAttractiveness,2022.2.5,145.05850933086427,
treatment,0% Never,100% Always,images\ LIP_CFD_BM_213_134_N.png,0,0,0,0,2,69,259,48,,,,,,,,,,,,,,,,,,,,,,,,,,,,2023-04-07_19h15.07.036,FaceAttractiveness,2022.2.5,145.05850933086427,
treatment,0% Never,100% Always,images\ LCHEEK_006_M_F_N_A.png,0,0,0,0,2,70,260,19,,,,,,,,,,,,,,,,,,,,,,,,,,,,2023-04-07_19h15.07.036,FaceAttractiveness,2022.2.5,145.05850933086427,
treatment,0% Never,100% Always,images\ NASALTIP_CFD_WF_200_099_N.png,0,0,0,0,2,71,261,73,,,,,,,,,,,,,,,,,,,,,,,,,,,,2023-04-07_19h15.07.036,FaceAttractiveness,2022.2.5,145.05850933086427,
treatment,0% Never,100% Always,images\ NASALTIP_CFD_LM_203_026_N.png,0,0,0,0,2,72,262,71,,,,,,,,,,,,,,,,,,,,,,,,,,,,2023-04-07_19h15.07.036,FaceAttractiveness,2022.2.5,145.05850933086427,
treatment,0% Never,100% Always,images\FOREHEAD_CFD_BM_234_172_N.png,0,0,0,0,2,73,263,11,,,,,,,,,,,,,,,,,,,,,,,,,,,,2023-04-07_19h15.07.036,FaceAttractiveness,2022.2.5,145.05850933086427,
treatment,0% Never,100% Always,images\ RCHEEK_CFD_WF_200_099_N.png,0,0,0,0,2,74,264,92,,,,,,,,,,,,,,,,,,,,,,,,,,,,2023-04-07_19h15.07.036,FaceAttractiveness,2022.2.5,145.05850933086427,
treatment,0% Never,100% Always,images\ NASALTIP_CFD_WF_250_167_N.png,0,0,0,0,2,75,265,74,,,,,,,,,,,,,,,,,,,,,,,,,,,,2023-04-07_19h15.07.036,FaceAttractiveness,2022.2.5,145.05850933086427,
treatment,0% Never,100% Always,"images\ RCHEEK_136_M_M_N_A.png
",0,0,0,0,2,76,266,79,,,,,,,,,,,,,,,,,,,,,,,,,,,,2023-04-07_19h15.07.036,FaceAttractiveness,2022.2.5,145.05850933086427,
treatment,0% Never,100% Always,images\ RCHEEK_CFD_AF_231_357_N.png,0,0,0,0,2,77,267,80,,,,,,,,,,,,,,,,,,,,,,,,,,,,2023-04-07_19h15.07.036,FaceAttractiveness,2022.2.5,145.05850933086427,
treatment,0% Never,100% Always,images\ NASALTIP_CFD_LM_201_057_N.png,0,0,0,0,2,78,268,70,,,,,,,,,,,,,,,,,,,,,,,,,,,,2023-04-07_19h15.07.036,FaceAttractiveness,2022.2.5,145.05850933086427,
treatment,0% Never,100% Always,images\FOREHEAD_CFD_BM_213_134_N.png,0,0,0,0,2,79,269,10,,,,,,,,,,,,,,,,,,,,,,,,,,,,2023-04-07_19h15.07.036,FaceAttractiveness,2022.2.5,145.05850933086427,
treatment,0% Never,100% Always,images\FOREHEAD_CFD_LF_224_176_N.png,0,0,0,0,2,80,270,12,,,,,,,,,,,,,,,,,,,,,,,,,,,,2023-04-07_19h15.07.036,FaceAttractiveness,2022.2.5,145.05850933086427,
treatment,0% Never,100% Always,images\ LIP_CFD_WF_250_167_N.png,0,0,0,0,2,81,271,55,,,,,,,,,,,,,,,,,,,,,,,,,,,,2023-04-07_19h15.07.036,FaceAttractiveness,2022.2.5,145.05850933086427,
treatment,0% Never,100% Always,images\ NASALTIP_CFD_LF_224_176_N.png,0,0,0,0,2,82,272,69,,,,,,,,,,,,,,,,,,,,,,,,,,,,2023-04-07_19h15.07.036,FaceAttractiveness,2022.2.5,145.05850933086427,
treatment,0% Never,100% Always,"images\ LCHEEK_CFD_BM_234_172_N.png
",0,0,0,0,2,83,273,30,,,,,,,,,,,,,,,,,,,,,,,,,,,,2023-04-07_19h15.07.036,FaceAttractiveness,2022.2.5,145.05850933086427,
treatment,0% Never,100% Always,images\FOREHEAD_CFD_WF_250_167_N.png,0,0,0,0,2,84,274,17,,,,,,,,,,,,,,,,,,,,,,,,,,,,2023-04-07_19h15.07.036,FaceAttractiveness,2022.2.5,145.05850933086427,
treatment,0% Never,100% Always,images\FOREHEAD_CFD_AF_245_143_N.png,0,0,0,0,2,85,275,6,,,,,,,,,,,,,,,,,,,,,,,,,,,,2023-04-07_19h15.07.036,FaceAttractiveness,2022.2.5,145.05850933086427,
treatment,0% Never,100% Always,"images\ NASALTIP_136_M_M_N_A.png
",0,0,0,0,2,86,276,60,,,,,,,,,,,,,,,,,,,,,,,,,,,,2023-04-07_19h15.07.036,FaceAttractiveness,2022.2.5,145.05850933086427,
treatment,0% Never,100% Always,images\FOREHEAD_CFD_AM_233_236_N.png,0,0,0,0,2,87,277,7,,,,,,,,,,,,,,,,,,,,,,,,,,,,2023-04-07_19h15.07.036,FaceAttractiveness,2022.2.5,145.05850933086427,
treatment,0% Never,100% Always,images\FOREHEAD_035_M_F_N_A.png,0,0,0,0,2,88,278,1,,,,,,,,,,,,,,,,,,,,,,,,,,,,2023-04-07_19h15.07.036,FaceAttractiveness,2022.2.5,145.05850933086427,
treatment,0% Never,100% Always,images\ LIP_087_M_M_N_A.png,0,0,0,0,2,89,279,40,,,,,,,,,,,,,,,,,,,,,,,,,,,,2023-04-07_19h15.07.036,FaceAttractiveness,2022.2.5,145.05850933086427,
treatment,0% Never,100% Always,"images\ LIP_CFD_WF_002_004_N.png
",0,0,0,0,2,90,280,53,,,,,,,,,,,,,,,,,,,,,,,,,,,,2023-04-07_19h15.07.036,FaceAttractiveness,2022.2.5,145.05850933086427,
treatment,0% Never,100% Always,images\ LIP_CFD_AF_231_357_N.png,0,0,0,0,2,91,281,42,,,,,,,,,,,,,,,,,,,,,,,,,,,,2023-04-07_19h15.07.036,FaceAttractiveness,2022.2.5,145.05850933086427,
treatment,0% Never,100% Always,images\ NASALTIP_087_M_M_N_A.png,0,0,0,0,2,92,282,59,,,,,,,,,,,,,,,,,,,,,,,,,,,,2023-04-07_19h15.07.036,FaceAttractiveness,2022.2.5,145.05850933086427,
treatment,0% Never,100% Always,images\ LIP_CFD_WM_212_097_N.png,0,0,0,0,2,93,283,56,,,,,,,,,,,,,,,,,,,,,,,,,,,,2023-04-07_19h15.07.036,FaceAttractiveness,2022.2.5,145.05850933086427,
treatment,0% Never,100% Always,images\FOREHEAD_087_M_M_N_A.png,0,0,0,0,2,94,284,2,,,,,,,,,,,,,,,,,,,,,,,,,,,,2023-04-07_19h15.07.036,FaceAttractiveness,2022.2.5,145.05850933086427,
treatment,0% Never,100% Always,images\FOREHEAD_087_M_M_N_A.png,0,0,0,0,3,0,285,2,,,,,,,,,,,,,,,,,,,,,,,,,,,,2023-04-07_19h15.07.036,FaceAttractiveness,2022.2.5,145.05850933086427,
treatment,0% Never,100% Always,images\ LIP_CFD_WF_200_099_N.png,0,0,0,0,3,1,286,54,,,,,,,,,,,,,,,,,,,,,,,,,,,,2023-04-07_19h15.07.036,FaceAttractiveness,2022.2.5,145.05850933086427,
treatment,0% Never,100% Always,images\ LCHEEK_CFD_BF_224_002_N.png,0,0,0,0,3,2,287,28,,,,,,,,,,,,,,,,,,,,,,,,,,,,2023-04-07_19h15.07.036,FaceAttractiveness,2022.2.5,145.05850933086427,
treatment,0% Never,100% Always,images\FOREHEAD_CFD_AF_245_143_N.png,0,0,0,0,3,3,288,6,,,,,,,,,,,,,,,,,,,,,,,,,,,,2023-04-07_19h15.07.036,FaceAttractiveness,2022.2.5,145.05850933086427,
treatment,0% Never,100% Always,images\ LIP_CFD_BM_213_134_N.png,0,0,0,0,3,4,289,48,,,,,,,,,,,,,,,,,,,,,,,,,,,,2023-04-07_19h15.07.036,FaceAttractiveness,2022.2.5,145.05850933086427,
treatment,0% Never,100% Always,images\ RCHEEK_CFD_LM_201_057_N.png,0,0,0,0,3,5,290,89,,,,,,,,,,,,,,,,,,,,,,,,,,,,2023-04-07_19h15.07.036,FaceAttractiveness,2022.2.5,145.05850933086427,
treatment,0% Never,100% Always,images\ LIP_006_M_F_N_A.png,0,0,0,0,3,6,291,38,,,,,,,,,,,,,,,,,,,,,,,,,,,,2023-04-07_19h15.07.036,FaceAttractiveness,2022.2.5,145.05850933086427,
treatment,0% Never,100% Always,images\ LCHEEK_CFD_WM_212_097_N.png,0,0,0,0,3,7,292,37,,,,,,,,,,,,,,,,,,,,,,,,,,,,2023-04-07_19h15.07.036,FaceAttractiveness,2022.2.5,145.05850933086427,
treatment,0% Never,100% Always,images\ LIP_035_M_F_N_A.png,0,0,0,0,3,8,293,39,,,,,,,,,,,,,,,,,,,,,,,,,,,,2023-04-07_19h15.07.036,FaceAttractiveness,2022.2.5,145.05850933086427,
treatment,0% Never,100% Always,images\FOREHEAD_006_M_F_N_A.png,0,0,0,0,3,9,294,0,,,,,,,,,,,,,,,,,,,,,,,,,,,,2023-04-07_19h15.07.036,FaceAttractiveness,2022.2.5,145.05850933086427,
treatment,0% Never,100% Always,images\ RCHEEK_CFD_WF_250_167_N.png,0,0,0,0,3,10,295,93,,,,,,,,,,,,,,,,,,,,,,,,,,,,2023-04-07_19h15.07.036,FaceAttractiveness,2022.2.5,145.05850933086427,
treatment,0% Never,100% Always,images\ LIP_CFD_LF_224_176_N.png,0,0,0,0,3,11,296,50,,,,,,,,,,,,,,,,,,,,,,,,,,,,2023-04-07_19h15.07.036,FaceAttractiveness,2022.2.5,145.05850933086427,
treatment,0% Never,100% Always,images\FOREHEAD_035_M_F_N_A.png,0,0,0,0,3,12,297,1,,,,,,,,,,,,,,,,,,,,,,,,,,,,2023-04-07_19h15.07.036,FaceAttractiveness,2022.2.5,145.05850933086427,
treatment,0% Never,100% Always,images\ RCHEEK_006_M_F_N_A.png,0,0,0,0,3,13,298,76,,,,,,,,,,,,,,,,,,,,,,,,,,,,2023-04-07_19h15.07.036,FaceAttractiveness,2022.2.5,145.05850933086427,
treatment,0% Never,100% Always,images\ NASALTIP_CFD_WM_212_097_N.png,0,0,0,0,3,14,299,75,,,,,,,,,,,,,,,,,,,,,,,,,,,,2023-04-07_19h15.07.036,FaceAttractiveness,2022.2.5,145.05850933086427,
treatment,0% Never,100% Always,images\FOREHEAD_CFD_BF_224_002_N.png,0,0,0,0,3,15,300,9,,,,,,,,,,,,,,,,,,,,,,,,,,,,2023-04-07_19h15.07.036,FaceAttractiveness,2022.2.5,145.05850933086427,
treatment,0% Never,100% Always,images\ LCHEEK_CFD_LF_224_176_N.png,0,0,0,0,3,16,301,31,,,,,,,,,,,,,,,,,,,,,,,,,,,,2023-04-07_19h15.07.036,FaceAttractiveness,2022.2.5,145.05850933086427,
treatment,0% Never,100% Always,images\ RCHEEK_CFD_LM_203_026_N.png,0,0,0,0,3,17,302,90,,,,,,,,,,,,,,,,,,,,,,,,,,,,2023-04-07_19h15.07.036,FaceAttractiveness,2022.2.5,145.05850933086427,
treatment,0% Never,100% Always,images\ NASALTIP_CFD_WF_200_099_N.png,0,0,0,0,3,18,303,73,,,,,,,,,,,,,,,,,,,,,,,,,,,,2023-04-07_19h15.07.036,FaceAttractiveness,2022.2.5,145.05850933086427,
treatment,0% Never,100% Always,images\ LIP_CFD_WM_212_097_N.png,0,0,0,0,3,19,304,56,,,,,,,,,,,,,,,,,,,,,,,,,,,,2023-04-07_19h15.07.036,FaceAttractiveness,2022.2.5,145.05850933086427,
treatment,0% Never,100% Always,"images\ LIP_CFD_WF_002_004_N.png
",0,0,0,0,3,20,305,53,,,,,,,,,,,,,,,,,,,,,,,,,,,,2023-04-07_19h15.07.036,FaceAttractiveness,2022.2.5,145.05850933086427,
treatment,0% Never,100% Always,images\ LIP_CFD_AF_237_223_N.png,0,0,0,0,3,21,306,43,,,,,,,,,,,,,,,,,,,,,,,,,,,,2023-04-07_19h15.07.036,FaceAttractiveness,2022.2.5,145.05850933086427,
treatment,0% Never,100% Always,images\ LIP_CFD_BF_214_308_N.png,0,0,0,0,3,22,307,46,,,,,,,,,,,,,,,,,,,,,,,,,,,,2023-04-07_19h15.07.036,FaceAttractiveness,2022.2.5,145.05850933086427,
treatment,0% Never,100% Always,images\ LIP_CFD_AF_245_143_N.png,0,0,0,0,3,23,308,44,,,,,,,,,,,,,,,,,,,,,,,,,,,,2023-04-07_19h15.07.036,FaceAttractiveness,2022.2.5,145.05850933086427,
treatment,0% Never,100% Always,images\ RCHEEK_CFD_AF_231_357_N.png,0,0,0,0,3,24,309,80,,,,,,,,,,,,,,,,,,,,,,,,,,,,2023-04-07_19h15.07.036,FaceAttractiveness,2022.2.5,145.05850933086427,
treatment,0% Never,100% Always,"images\ NASALTIP_CFD_BM_234_172_N.png
",0,0,0,0,3,25,310,68,,,,,,,,,,,,,,,,,,,,,,,,,,,,2023-04-07_19h15.07.036,FaceAttractiveness,2022.2.5,145.05850933086427,
treatment,0% Never,100% Always,images\ RCHEEK_CFD_BF_224_002_N.png,0,0,0,0,3,26,311,85,,,,,,,,,,,,,,,,,,,,,,,,,,,,2023-04-07_19h15.07.036,FaceAttractiveness,2022.2.5,145.05850933086427,
treatment,0% Never,100% Always,images\ NASALTIP_CFD_LM_201_057_N.png,0,0,0,0,3,27,312,70,,,,,,,,,,,,,,,,,,,,,,,,,,,,2023-04-07_19h15.07.036,FaceAttractiveness,2022.2.5,145.05850933086427,
treatment,0% Never,100% Always,images\ LCHEEK_CFD_BM_213_134_N.png,0,0,0,0,3,28,313,29,,,,,,,,,,,,,,,,,,,,,,,,,,,,2023-04-07_19h15.07.036,FaceAttractiveness,2022.2.5,145.05850933086427,
treatment,0% Never,100% Always,"images\ LIP_136_M_M_N_A.png
",0,0,0,0,3,29,314,41,,,,,,,,,,,,,,,,,,,,,,,,,,,,2023-04-07_19h15.07.036,FaceAttractiveness,2022.2.5,145.05850933086427,
treatment,0% Never,100% Always,images\FOREHEAD_CFD_LF_224_176_N.png,0,0,0,0,3,30,315,12,,,,,,,,,,,,,,,,,,,,,,,,,,,,2023-04-07_19h15.07.036,FaceAttractiveness,2022.2.5,145.05850933086427,
treatment,0% Never,100% Always,images\FOREHEAD_CFD_WF_002_004_N.png,0,0,0,0,3,31,316,15,,,,,,,,,,,,,,,,,,,,,,,,,,,,2023-04-07_19h15.07.036,FaceAttractiveness,2022.2.5,145.05850933086427,
treatment,0% Never,100% Always,images\ LIP_087_M_M_N_A.png,0,0,0,0,3,32,317,40,,,,,,,,,,,,,,,,,,,,,,,,,,,,2023-04-07_19h15.07.036,FaceAttractiveness,2022.2.5,145.05850933086427,
treatment,0% Never,100% Always,images\FOREHEAD_CFD_LM_201_057_N.png,0,0,0,0,3,33,318,13,,,,,,,,,,,,,,,,,,,,,,,,,,,,2023-04-07_19h15.07.036,FaceAttractiveness,2022.2.5,145.05850933086427,
treatment,0% Never,100% Always,images\ LCHEEK_006_M_F_N_A.png,0,0,0,0,3,34,319,19,,,,,,,,,,,,,,,,,,,,,,,,,,,,2023-04-07_19h15.07.036,FaceAttractiveness,2022.2.5,145.05850933086427,
treatment,0% Never,100% Always,images\FOREHEAD_CFD_BM_213_134_N.png,0,0,0,0,3,35,320,10,,,,,,,,,,,,,,,,,,,,,,,,,,,,2023-04-07_19h15.07.036,FaceAttractiveness,2022.2.5,145.05850933086427,
treatment,0% Never,100% Always,images\ NASALTIP_CFD_LF_224_176_N.png,0,0,0,0,3,36,321,69,,,,,,,,,,,,,,,,,,,,,,,,,,,,2023-04-07_19h15.07.036,FaceAttractiveness,2022.2.5,145.05850933086427,
treatment,0% Never,100% Always,"images\ LCHEEK_CFD_AM_233_236_N.png
",0,0,0,0,3,37,322,26,,,,,,,,,,,,,,,,,,,,,,,,,,,,2023-04-07_19h15.07.036,FaceAttractiveness,2022.2.5,145.05850933086427,
treatment,0% Never,100% Always,"images\ RCHEEK_CFD_BM_234_172_N.png
",0,0,0,0,3,38,323,87,,,,,,,,,,,,,,,,,,,,,,,,,,,,2023-04-07_19h15.07.036,FaceAttractiveness,2022.2.5,145.05850933086427,
treatment,0% Never,100% Always,images\ LCHEEK_CFD_AF_237_223_N.png,0,0,0,0,3,39,324,24,,,,,,,,,,,,,,,,,,,,,,,,,,,,2023-04-07_19h15.07.036,FaceAttractiveness,2022.2.5,145.05850933086427,
treatment,0% Never,100% Always,"images\ LIP_CFD_AM_233_236_N.png
",0,0,0,0,3,40,325,45,,,,,,,,,,,,,,,,,,,,,,,,,,,,2023-04-07_19h15.07.036,FaceAttractiveness,2022.2.5,145.05850933086427,
treatment,0% Never,100% Always,images\FOREHEAD_CFD_AM_233_236_N.png,0,0,0,0,3,41,326,7,,,,,,,,,,,,,,,,,,,,,,,,,,,,2023-04-07_19h15.07.036,FaceAttractiveness,2022.2.5,145.05850933086427,
treatment,0% Never,100% Always,images\ LCHEEK_035_M_F_N_A.png,0,0,0,0,3,42,327,20,,,,,,,,,,,,,,,,,,,,,,,,,,,,2023-04-07_19h15.07.036,FaceAttractiveness,2022.2.5,145.05850933086427,
treatment,0% Never,100% Always,images\ RCHEEK_CFD_LF_224_176_N.png,0,0,0,0,3,43,328,88,,,,,,,,,,,,,,,,,,,,,,,,,,,,2023-04-07_19h15.07.036,FaceAttractiveness,2022.2.5,145.05850933086427,
treatment,0% Never,100% Always,"images\ LIP_CFD_BM_234_172_N.png
",0,0,0,0,3,44,329,49,,,,,,,,,,,,,,,,,,,,,,,,,,,,2023-04-07_19h15.07.036,FaceAttractiveness,2022.2.5,145.05850933086427,
treatment,0% Never,100% Always,"images\ LCHEEK_CFD_WF_002_004_N.png
",0,0,0,0,3,45,330,34,,,,,,,,,,,,,,,,,,,,,,,,,,,,2023-04-07_19h15.07.036,FaceAttractiveness,2022.2.5,145.05850933086427,
treatment,0% Never,100% Always,"images\ NASALTIP_136_M_M_N_A.png
",0,0,0,0,3,46,331,60,,,,,,,,,,,,,,,,,,,,,,,,,,,,2023-04-07_19h15.07.036,FaceAttractiveness,2022.2.5,145.05850933086427,
treatment,0% Never,100% Always,images\ LCHEEK_CFD_LM_203_026_N.png,0,0,0,0,3,47,332,33,,,,,,,,,,,,,,,,,,,,,,,,,,,,2023-04-07_19h15.07.036,FaceAttractiveness,2022.2.5,145.05850933086427,
treatment,0% Never,100% Always,images\FOREHEAD_CFD_WF_250_167_N.png,0,0,0,0,3,48,333,17,,,,,,,,,,,,,,,,,,,,,,,,,,,,2023-04-07_19h15.07.036,FaceAttractiveness,2022.2.5,145.05850933086427,
treatment,0% Never,100% Always,images\ LIP_CFD_LM_203_026_N.png,0,0,0,0,3,49,334,52,,,,,,,,,,,,,,,,,,,,,,,,,,,,2023-04-07_19h15.07.036,FaceAttractiveness,2022.2.5,145.05850933086427,
treatment,0% Never,100% Always,images\ LIP_CFD_BF_224_002_N.png,0,0,0,0,3,50,335,47,,,,,,,,,,,,,,,,,,,,,,,,,,,,2023-04-07_19h15.07.036,FaceAttractiveness,2022.2.5,145.05850933086427,
treatment,0% Never,100% Always,images\ NASALTIP_CFD_AF_245_143_N.png,0,0,0,0,3,51,336,63,,,,,,,,,,,,,,,,,,,,,,,,,,,,2023-04-07_19h15.07.036,FaceAttractiveness,2022.2.5,145.05850933086427,
treatment,0% Never,100% Always,images\ LIP_CFD_LM_201_057_N.png,0,0,0,0,3,52,337,51,,,,,,,,,,,,,,,,,,,,,,,,,,,,2023-04-07_19h15.07.036,FaceAttractiveness,2022.2.5,145.05850933086427,
treatment,0% Never,100% Always,images\FOREHEAD_CFD_AF_231_357_N.png,0,0,0,0,3,53,338,4,,,,,,,,,,,,,,,,,,,,,,,,,,,,2023-04-07_19h15.07.036,FaceAttractiveness,2022.2.5,145.05850933086427,
treatment,0% Never,100% Always,images\ NASALTIP_006_M_F_N_A.png,0,0,0,0,3,54,339,57,,,,,,,,,,,,,,,,,,,,,,,,,,,,2023-04-07_19h15.07.036,FaceAttractiveness,2022.2.5,145.05850933086427,
treatment,0% Never,100% Always,images\ LCHEEK_CFD_AF_231_357_N.png,0,0,0,0,3,55,340,23,,,,,,,,,,,,,,,,,,,,,,,,,,,,2023-04-07_19h15.07.036,FaceAttractiveness,2022.2.5,145.05850933086427,
treatment,0% Never,100% Always,images\ LCHEEK_CFD_BF_214_308_N.png,0,0,0,0,3,56,341,27,,,,,,,,,,,,,,,,,,,,,,,,,,,,2023-04-07_19h15.07.036,FaceAttractiveness,2022.2.5,145.05850933086427,
treatment,0% Never,100% Always,images\ LCHEEK_CFD_LM_201_057_N.png,0,0,0,0,3,57,342,32,,,,,,,,,,,,,,,,,,,,,,,,,,,,2023-04-07_19h15.07.036,FaceAttractiveness,2022.2.5,145.05850933086427,
treatment,0% Never,100% Always,images\ RCHEEK_087_M_M_N_A.png,0,0,0,0,3,58,343,78,,,,,,,,,,,,,,,,,,,,,,,,,,,,2023-04-07_19h15.07.036,FaceAttractiveness,2022.2.5,145.05850933086427,
treatment,0% Never,100% Always,images\ NASALTIP_CFD_AF_237_223_N.png,0,0,0,0,3,59,344,62,,,,,,,,,,,,,,,,,,,,,,,,,,,,2023-04-07_19h15.07.036,FaceAttractiveness,2022.2.5,145.05850933086427,
treatment,0% Never,100% Always,images\ LCHEEK_CFD_WF_200_099_N.png,0,0,0,0,3,60,345,35,,,,,,,,,,,,,,,,,,,,,,,,,,,,2023-04-07_19h15.07.036,FaceAttractiveness,2022.2.5,145.05850933086427,
treatment,0% Never,100% Always,images\ RCHEEK_035_M_F_N_A.png,0,0,0,0,3,61,346,77,,,,,,,,,,,,,,,,,,,,,,,,,,,,2023-04-07_19h15.07.036,FaceAttractiveness,2022.2.5,145.05850933086427,
treatment,0% Never,100% Always,images\ NASALTIP_CFD_LM_203_026_N.png,0,0,0,0,3,62,347,71,,,,,,,,,,,,,,,,,,,,,,,,,,,,2023-04-07_19h15.07.036,FaceAttractiveness,2022.2.5,145.05850933086427,
treatment,0% Never,100% Always,"images\ LCHEEK_CFD_BM_234_172_N.png
",0,0,0,0,3,63,348,30,,,,,,,,,,,,,,,,,,,,,,,,,,,,2023-04-07_19h15.07.036,FaceAttractiveness,2022.2.5,145.05850933086427,
treatment,0% Never,100% Always,images\ RCHEEK_CFD_AF_245_143_N.png,0,0,0,0,3,64,349,82,,,,,,,,,,,,,,,,,,,,,,,,,,,,2023-04-07_19h15.07.036,FaceAttractiveness,2022.2.5,145.05850933086427,
treatment,0% Never,100% Always,"images\ RCHEEK_CFD_WF_002_004_N.png
",0,0,0,0,3,65,350,91,,,,,,,,,,,,,,,,,,,,,,,,,,,,2023-04-07_19h15.07.036,FaceAttractiveness,2022.2.5,145.05850933086427,
treatment,0% Never,100% Always,images\ NASALTIP_CFD_BF_224_002_N.png,0,0,0,0,3,66,351,66,,,,,,,,,,,,,,,,,,,,,,,,,,,,2023-04-07_19h15.07.036,FaceAttractiveness,2022.2.5,145.05850933086427,
treatment,0% Never,100% Always,images\ RCHEEK_CFD_AF_237_223_N.png,0,0,0,0,3,67,352,81,,,,,,,,,,,,,,,,,,,,,,,,,,,,2023-04-07_19h15.07.036,FaceAttractiveness,2022.2.5,145.05850933086427,
treatment,0% Never,100% Always,images\ LCHEEK_087_M_M_N_A.png,0,0,0,0,3,68,353,21,,,,,,,,,,,,,,,,,,,,,,,,,,,,2023-04-07_19h15.07.036,FaceAttractiveness,2022.2.5,145.05850933086427,
treatment,0% Never,100% Always,images\ LIP_CFD_WF_250_167_N.png,0,0,0,0,3,69,354,55,,,,,,,,,,,,,,,,,,,,,,,,,,,,2023-04-07_19h15.07.036,FaceAttractiveness,2022.2.5,145.05850933086427,
treatment,0% Never,100% Always,images\ NASALTIP_CFD_BM_213_134_N.png,0,0,0,0,3,70,355,67,,,,,,,,,,,,,,,,,,,,,,,,,,,,2023-04-07_19h15.07.036,FaceAttractiveness,2022.2.5,145.05850933086427,
treatment,0% Never,100% Always,images\ RCHEEK_CFD_BF_214_308_N.png,0,0,0,0,3,71,356,84,,,,,,,,,,,,,,,,,,,,,,,,,,,,2023-04-07_19h15.07.036,FaceAttractiveness,2022.2.5,145.05850933086427,
treatment,0% Never,100% Always,images\ RCHEEK_CFD_WF_200_099_N.png,0,0,0,0,3,72,357,92,,,,,,,,,,,,,,,,,,,,,,,,,,,,2023-04-07_19h15.07.036,FaceAttractiveness,2022.2.5,145.05850933086427,
treatment,0% Never,100% Always,"images\ LCHEEK_136_M_M_N_A.png
",0,0,0,0,3,73,358,22,,,,,,,,,,,,,,,,,,,,,,,,,,,,2023-04-07_19h15.07.036,FaceAttractiveness,2022.2.5,145.05850933086427,
treatment,0% Never,100% Always,images\FOREHEAD_CFD_LM_203_026_N.png,0,0,0,0,3,74,359,14,,,,,,,,,,,,,,,,,,,,,,,,,,,,2023-04-07_19h15.07.036,FaceAttractiveness,2022.2.5,145.05850933086427,
treatment,0% Never,100% Always,"images\ RCHEEK_CFD_AM_233_236_N.png
",0,0,0,0,3,75,360,83,,,,,,,,,,,,,,,,,,,,,,,,,,,,2023-04-07_19h15.07.036,FaceAttractiveness,2022.2.5,145.05850933086427,
treatment,0% Never,100% Always,images\FOREHEAD_CFD_BF_214_308_N.png,0,0,0,0,3,76,361,8,,,,,,,,,,,,,,,,,,,,,,,,,,,,2023-04-07_19h15.07.036,FaceAttractiveness,2022.2.5,145.05850933086427,
treatment,0% Never,100% Always,images\ RCHEEK_CFD_WM_212_097_N.png,0,0,0,0,3,77,362,94,,,,,,,,,,,,,,,,,,,,,,,,,,,,2023-04-07_19h15.07.036,FaceAttractiveness,2022.2.5,145.05850933086427,
treatment,0% Never,100% Always,images\FOREHEAD_CFD_WF_200_099_N.png,0,0,0,0,3,78,363,16,,,,,,,,,,,,,,,,,,,,,,,,,,,,2023-04-07_19h15.07.036,FaceAttractiveness,2022.2.5,145.05850933086427,
treatment,0% Never,100% Always,images\ NASALTIP_035_M_F_N_A.png,0,0,0,0,3,79,364,58,,,,,,,,,,,,,,,,,,,,,,,,,,,,2023-04-07_19h15.07.036,FaceAttractiveness,2022.2.5,145.05850933086427,
treatment,0% Never,100% Always,"images\ NASALTIP_CFD_WF_002_004_N.png
",0,0,0,0,3,80,365,72,,,,,,,,,,,,,,,,,,,,,,,,,,,,2023-04-07_19h15.07.036,FaceAttractiveness,2022.2.5,145.05850933086427,
treatment,0% Never,100% Always,images\FOREHEAD_CFD_WM_212_097_N.png,0,0,0,0,3,81,366,18,,,,,,,,,,,,,,,,,,,,,,,,,,,,2023-04-07_19h15.07.036,FaceAttractiveness,2022.2.5,145.05850933086427,
treatment,0% Never,100% Always,images\ NASALTIP_CFD_BF_214_308_N.png,0,0,0,0,3,82,367,65,,,,,,,,,,,,,,,,,,,,,,,,,,,,2023-04-07_19h15.07.036,FaceAttractiveness,2022.2.5,145.05850933086427,
treatment,0% Never,100% Always,"images\ NASALTIP_CFD_AM_233_236_N.png
",0,0,0,0,3,83,368,64,,,,,,,,,,,,,,,,,,,,,,,,,,,,2023-04-07_19h15.07.036,FaceAttractiveness,2022.2.5,145.05850933086427,
treatment,0% Never,100% Always,images\FOREHEAD_CFD_BM_234_172_N.png,0,0,0,0,3,84,369,11,,,,,,,,,,,,,,,,,,,,,,,,,,,,2023-04-07_19h15.07.036,FaceAttractiveness,2022.2.5,145.05850933086427,
treatment,0% Never,100% Always,images\ NASALTIP_CFD_WF_250_167_N.png,0,0,0,0,3,85,370,74,,,,,,,,,,,,,,,,,,,,,,,,,,,,2023-04-07_19h15.07.036,FaceAttractiveness,2022.2.5,145.05850933086427,
treatment,0% Never,100% Always,images\ NASALTIP_087_M_M_N_A.png,0,0,0,0,3,86,371,59,,,,,,,,,,,,,,,,,,,,,,,,,,,,2023-04-07_19h15.07.036,FaceAttractiveness,2022.2.5,145.05850933086427,
treatment,0% Never,100% Always,images\FOREHEAD_CFD_AF_237_223_N.png,0,0,0,0,3,87,372,5,,,,,,,,,,,,,,,,,,,,,,,,,,,,2023-04-07_19h15.07.036,FaceAttractiveness,2022.2.5,145.05850933086427,
treatment,0% Never,100% Always,images\ LCHEEK_CFD_AF_245_143_N.png,0,0,0,0,3,88,373,25,,,,,,,,,,,,,,,,,,,,,,,,,,,,2023-04-07_19h15.07.036,FaceAttractiveness,2022.2.5,145.05850933086427,
treatment,0% Never,100% Always,images\ LIP_CFD_AF_231_357_N.png,0,0,0,0,3,89,374,42,,,,,,,,,,,,,,,,,,,,,,,,,,,,2023-04-07_19h15.07.036,FaceAttractiveness,2022.2.5,145.05850933086427,
treatment,0% Never,100% Always,images\ NASALTIP_CFD_AF_231_357_N.png,0,0,0,0,3,90,375,61,,,,,,,,,,,,,,,,,,,,,,,,,,,,2023-04-07_19h15.07.036,FaceAttractiveness,2022.2.5,145.05850933086427,
treatment,0% Never,100% Always,images\ RCHEEK_CFD_BM_213_134_N.png,0,0,0,0,3,91,376,86,,,,,,,,,,,,,,,,,,,,,,,,,,,,2023-04-07_19h15.07.036,FaceAttractiveness,2022.2.5,145.05850933086427,
treatment,0% Never,100% Always,images\ LCHEEK_CFD_WF_250_167_N.png,0,0,0,0,3,92,377,36,,,,,,,,,,,,,,,,,,,,,,,,,,,,2023-04-07_19h15.07.036,FaceAttractiveness,2022.2.5,145.05850933086427,
treatment,0% Never,100% Always,"images\ RCHEEK_136_M_M_N_A.png
",0,0,0,0,3,93,378,79,,,,,,,,,,,,,,,,,,,,,,,,,,,,2023-04-07_19h15.07.036,FaceAttractiveness,2022.2.5,145.05850933086427,
treatment,0% Never,100% Always,images\FOREHEAD_136_M_M_N_A.png,0,0,0,0,3,94,379,3,,,,,,,,,,,,,,,,,,,,,,,,,,,,2023-04-07_19h15.07.036,FaceAttractiveness,2022.2.5,145.05850933086427,
treatment,0% Never,100% Always,images\FOREHEAD_CFD_WF_200_099_N.png,0,0,0,0,4,0,380,16,,,,,,,,,,,,,,,,,,,,,,,,,,,,2023-04-07_19h15.07.036,FaceAttractiveness,2022.2.5,145.05850933086427,
treatment,0% Never,100% Always,images\FOREHEAD_CFD_AF_231_357_N.png,0,0,0,0,4,1,381,4,,,,,,,,,,,,,,,,,,,,,,,,,,,,2023-04-07_19h15.07.036,FaceAttractiveness,2022.2.5,145.05850933086427,
treatment,0% Never,100% Always,images\ LCHEEK_CFD_BF_224_002_N.png,0,0,0,0,4,2,382,28,,,,,,,,,,,,,,,,,,,,,,,,,,,,2023-04-07_19h15.07.036,FaceAttractiveness,2022.2.5,145.05850933086427,
treatment,0% Never,100% Always,images\ LCHEEK_CFD_LF_224_176_N.png,0,0,0,0,4,3,383,31,,,,,,,,,,,,,,,,,,,,,,,,,,,,2023-04-07_19h15.07.036,FaceAttractiveness,2022.2.5,145.05850933086427,
treatment,0% Never,100% Always,images\ LIP_CFD_LM_203_026_N.png,0,0,0,0,4,4,384,52,,,,,,,,,,,,,,,,,,,,,,,,,,,,2023-04-07_19h15.07.036,FaceAttractiveness,2022.2.5,145.05850933086427,
treatment,0% Never,100% Always,"images\ LIP_CFD_BM_234_172_N.png
",0,0,0,0,4,5,385,49,,,,,,,,,,,,,,,,,,,,,,,,,,,,2023-04-07_19h15.07.036,FaceAttractiveness,2022.2.5,145.05850933086427,
treatment,0% Never,100% Always,images\ LIP_CFD_LF_224_176_N.png,0,0,0,0,4,6,386,50,,,,,,,,,,,,,,,,,,,,,,,,,,,,2023-04-07_19h15.07.036,FaceAttractiveness,2022.2.5,145.05850933086427,
treatment,0% Never,100% Always,images\ NASALTIP_006_M_F_N_A.png,0,0,0,0,4,7,387,57,,,,,,,,,,,,,,,,,,,,,,,,,,,,2023-04-07_19h15.07.036,FaceAttractiveness,2022.2.5,145.05850933086427,
treatment,0% Never,100% Always,images\ NASALTIP_CFD_WM_212_097_N.png,0,0,0,0,4,8,388,75,,,,,,,,,,,,,,,,,,,,,,,,,,,,2023-04-07_19h15.07.036,FaceAttractiveness,2022.2.5,145.05850933086427,
treatment,0% Never,100% Always,images\FOREHEAD_CFD_BM_234_172_N.png,0,0,0,0,4,9,389,11,,,,,,,,,,,,,,,,,,,,,,,,,,,,2023-04-07_19h15.07.036,FaceAttractiveness,2022.2.5,145.05850933086427,
treatment,0% Never,100% Always,images\ NASALTIP_CFD_BF_224_002_N.png,0,0,0,0,4,10,390,66,,,,,,,,,,,,,,,,,,,,,,,,,,,,2023-04-07_19h15.07.036,FaceAttractiveness,2022.2.5,145.05850933086427,
treatment,0% Never,100% Always,"images\ RCHEEK_CFD_WF_002_004_N.png
",0,0,0,0,4,11,391,91,,,,,,,,,,,,,,,,,,,,,,,,,,,,2023-04-07_19h15.07.036,FaceAttractiveness,2022.2.5,145.05850933086427,
treatment,0% Never,100% Always,images\ LIP_CFD_AF_237_223_N.png,0,0,0,0,4,12,392,43,,,,,,,,,,,,,,,,,,,,,,,,,,,,2023-04-07_19h15.07.036,FaceAttractiveness,2022.2.5,145.05850933086427,
treatment,0% Never,100% Always,images\ LIP_CFD_BF_224_002_N.png,0,0,0,0,4,13,393,47,,,,,,,,,,,,,,,,,,,,,,,,,,,,2023-04-07_19h15.07.036,FaceAttractiveness,2022.2.5,145.05850933086427,
treatment,0% Never,100% Always,images\FOREHEAD_CFD_WM_212_097_N.png,0,0,0,0,4,14,394,18,,,,,,,,,,,,,,,,,,,,,,,,,,,,2023-04-07_19h15.07.036,FaceAttractiveness,2022.2.5,145.05850933086427,
treatment,0% Never,100% Always,"images\ RCHEEK_CFD_BM_234_172_N.png
",0,0,0,0,4,15,395,87,,,,,,,,,,,,,,,,,,,,,,,,,,,,2023-04-07_19h15.07.036,FaceAttractiveness,2022.2.5,145.05850933086427,
treatment,0% Never,100% Always,images\ LCHEEK_CFD_AF_231_357_N.png,0,0,0,0,4,16,396,23,,,,,,,,,,,,,,,,,,,,,,,,,,,,2023-04-07_19h15.07.036,FaceAttractiveness,2022.2.5,145.05850933086427,
treatment,0% Never,100% Always,images\ RCHEEK_CFD_LF_224_176_N.png,0,0,0,0,4,17,397,88,,,,,,,,,,,,,,,,,,,,,,,,,,,,2023-04-07_19h15.07.036,FaceAttractiveness,2022.2.5,145.05850933086427,
treatment,0% Never,100% Always,images\ LCHEEK_CFD_AF_245_143_N.png,0,0,0,0,4,18,398,25,,,,,,,,,,,,,,,,,,,,,,,,,,,,2023-04-07_19h15.07.036,FaceAttractiveness,2022.2.5,145.05850933086427,
treatment,0% Never,100% Always,images\FOREHEAD_CFD_BF_214_308_N.png,0,0,0,0,4,19,399,8,,,,,,,,,,,,,,,,,,,,,,,,,,,,2023-04-07_19h15.07.036,FaceAttractiveness,2022.2.5,145.05850933086427,
treatment,0% Never,100% Always,images\ LCHEEK_CFD_WM_212_097_N.png,0,0,0,0,4,20,400,37,,,,,,,,,,,,,,,,,,,,,,,,,,,,2023-04-07_19h15.07.036,FaceAttractiveness,2022.2.5,145.05850933086427,
treatment,0% Never,100% Always,"images\ RCHEEK_136_M_M_N_A.png
",0,0,0,0,4,21,401,79,,,,,,,,,,,,,,,,,,,,,,,,,,,,2023-04-07_19h15.07.036,FaceAttractiveness,2022.2.5,145.05850933086427,
treatment,0% Never,100% Always,images\ RCHEEK_CFD_AF_231_357_N.png,0,0,0,0,4,22,402,80,,,,,,,,,,,,,,,,,,,,,,,,,,,,2023-04-07_19h15.07.036,FaceAttractiveness,2022.2.5,145.05850933086427,
treatment,0% Never,100% Always,images\ LIP_CFD_WM_212_097_N.png,0,0,0,0,4,23,403,56,,,,,,,,,,,,,,,,,,,,,,,,,,,,2023-04-07_19h15.07.036,FaceAttractiveness,2022.2.5,145.05850933086427,
treatment,0% Never,100% Always,images\FOREHEAD_087_M_M_N_A.png,0,0,0,0,4,24,404,2,,,,,,,,,,,,,,,,,,,,,,,,,,,,2023-04-07_19h15.07.036,FaceAttractiveness,2022.2.5,145.05850933086427,
treatment,0% Never,100% Always,images\ LIP_087_M_M_N_A.png,0,0,0,0,4,25,405,40,,,,,,,,,,,,,,,,,,,,,,,,,,,,2023-04-07_19h15.07.036,FaceAttractiveness,2022.2.5,145.05850933086427,
treatment,0% Never,100% Always,images\ LIP_006_M_F_N_A.png,0,0,0,0,4,26,406,38,,,,,,,,,,,,,,,,,,,,,,,,,,,,2023-04-07_19h15.07.036,FaceAttractiveness,2022.2.5,145.05850933086427,
treatment,0% Never,100% Always,images\ LCHEEK_CFD_LM_201_057_N.png,0,0,0,0,4,27,407,32,,,,,,,,,,,,,,,,,,,,,,,,,,,,2023-04-07_19h15.07.036,FaceAttractiveness,2022.2.5,145.05850933086427,
treatment,0% Never,100% Always,images\ NASALTIP_087_M_M_N_A.png,0,0,0,0,4,28,408,59,,,,,,,,,,,,,,,,,,,,,,,,,,,,2023-04-07_19h15.07.036,FaceAttractiveness,2022.2.5,145.05850933086427,
treatment,0% Never,100% Always,"images\ LIP_CFD_AM_233_236_N.png
",0,0,0,0,4,29,409,45,,,,,,,,,,,,,,,,,,,,,,,,,,,,2023-04-07_19h15.07.036,FaceAttractiveness,2022.2.5,145.05850933086427,
treatment,0% Never,100% Always,images\ LCHEEK_CFD_AF_237_223_N.png,0,0,0,0,4,30,410,24,,,,,,,,,,,,,,,,,,,,,,,,,,,,2023-04-07_19h15.07.036,FaceAttractiveness,2022.2.5,145.05850933086427,
treatment,0% Never,100% Always,images\ LIP_035_M_F_N_A.png,0,0,0,0,4,31,411,39,,,,,,,,,,,,,,,,,,,,,,,,,,,,2023-04-07_19h15.07.036,FaceAttractiveness,2022.2.5,145.05850933086427,
treatment,0% Never,100% Always,images\ RCHEEK_006_M_F_N_A.png,0,0,0,0,4,32,412,76,,,,,,,,,,,,,,,,,,,,,,,,,,,,2023-04-07_19h15.07.036,FaceAttractiveness,2022.2.5,145.05850933086427,
treatment,0% Never,100% Always,"images\ LCHEEK_CFD_WF_002_004_N.png
",0,0,0,0,4,33,413,34,,,,,,,,,,,,,,,,,,,,,,,,,,,,2023-04-07_19h15.07.036,FaceAttractiveness,2022.2.5,145.05850933086427,
treatment,0% Never,100% Always,"images\ NASALTIP_CFD_AM_233_236_N.png
",0,0,0,0,4,34,414,64,,,,,,,,,,,,,,,,,,,,,,,,,,,,2023-04-07_19h15.07.036,FaceAttractiveness,2022.2.5,145.05850933086427,
treatment,0% Never,100% Always,"images\ LIP_136_M_M_N_A.png
",0,0,0,0,4,35,415,41,,,,,,,,,,,,,,,,,,,,,,,,,,,,2023-04-07_19h15.07.036,FaceAttractiveness,2022.2.5,145.05850933086427,
treatment,0% Never,100% Always,images\ LIP_CFD_WF_250_167_N.png,0,0,0,0,4,36,416,55,,,,,,,,,,,,,,,,,,,,,,,,,,,,2023-04-07_19h15.07.036,FaceAttractiveness,2022.2.5,145.05850933086427,
treatment,0% Never,100% Always,images\FOREHEAD_CFD_AF_245_143_N.png,0,0,0,0,4,37,417,6,,,,,,,,,,,,,,,,,,,,,,,,,,,,2023-04-07_19h15.07.036,FaceAttractiveness,2022.2.5,145.05850933086427,
treatment,0% Never,100% Always,images\FOREHEAD_CFD_BM_213_134_N.png,0,0,0,0,4,38,418,10,,,,,,,,,,,,,,,,,,,,,,,,,,,,2023-04-07_19h15.07.036,FaceAttractiveness,2022.2.5,145.05850933086427,
treatment,0% Never,100% Always,images\ NASALTIP_CFD_BF_214_308_N.png,0,0,0,0,4,39,419,65,,,,,,,,,,,,,,,,,,,,,,,,,,,,2023-04-07_19h15.07.036,FaceAttractiveness,2022.2.5,145.05850933086427,
treatment,0% Never,100% Always,images\ NASALTIP_CFD_LM_201_057_N.png,0,0,0,0,4,40,420,70,,,,,,,,,,,,,,,,,,,,,,,,,,,,2023-04-07_19h15.07.036,FaceAttractiveness,2022.2.5,145.05850933086427,
treatment,0% Never,100% Always,images\FOREHEAD_CFD_LM_203_026_N.png,0,0,0,0,4,41,421,14,,,,,,,,,,,,,,,,,,,,,,,,,,,,2023-04-07_19h15.07.036,FaceAttractiveness,2022.2.5,145.05850933086427,
treatment,0% Never,100% Always,images\ LCHEEK_CFD_BM_213_134_N.png,0,0,0,0,4,42,422,29,,,,,,,,,,,,,,,,,,,,,,,,,,,,2023-04-07_19h15.07.036,FaceAttractiveness,2022.2.5,145.05850933086427,
treatment,0% Never,100% Always,images\ RCHEEK_CFD_WF_250_167_N.png,0,0,0,0,4,43,423,93,,,,,,,,,,,,,,,,,,,,,,,,,,,,2023-04-07_19h15.07.036,FaceAttractiveness,2022.2.5,145.05850933086427,
treatment,0% Never,100% Always,images\ LCHEEK_035_M_F_N_A.png,0,0,0,0,4,44,424,20,,,,,,,,,,,,,,,,,,,,,,,,,,,,2023-04-07_19h15.07.036,FaceAttractiveness,2022.2.5,145.05850933086427,
treatment,0% Never,100% Always,images\ RCHEEK_CFD_WF_200_099_N.png,0,0,0,0,4,45,425,92,,,,,,,,,,,,,,,,,,,,,,,,,,,,2023-04-07_19h15.07.036,FaceAttractiveness,2022.2.5,145.05850933086427,
treatment,0% Never,100% Always,images\ RCHEEK_087_M_M_N_A.png,0,0,0,0,4,46,426,78,,,,,,,,,,,,,,,,,,,,,,,,,,,,2023-04-07_19h15.07.036,FaceAttractiveness,2022.2.5,145.05850933086427,
treatment,0% Never,100% Always,images\ LIP_CFD_AF_245_143_N.png,0,0,0,0,4,47,427,44,,,,,,,,,,,,,,,,,,,,,,,,,,,,2023-04-07_19h15.07.036,FaceAttractiveness,2022.2.5,145.05850933086427,
treatment,0% Never,100% Always,images\ RCHEEK_CFD_AF_237_223_N.png,0,0,0,0,4,48,428,81,,,,,,,,,,,,,,,,,,,,,,,,,,,,2023-04-07_19h15.07.036,FaceAttractiveness,2022.2.5,145.05850933086427,
treatment,0% Never,100% Always,images\FOREHEAD_CFD_WF_250_167_N.png,0,0,0,0,4,49,429,17,,,,,,,,,,,,,,,,,,,,,,,,,,,,2023-04-07_19h15.07.036,FaceAttractiveness,2022.2.5,145.05850933086427,
treatment,0% Never,100% Always,images\ NASALTIP_CFD_AF_237_223_N.png,0,0,0,0,4,50,430,62,,,,,,,,,,,,,,,,,,,,,,,,,,,,2023-04-07_19h15.07.036,FaceAttractiveness,2022.2.5,145.05850933086427,
treatment,0% Never,100% Always,images\ NASALTIP_CFD_LM_203_026_N.png,0,0,0,0,4,51,431,71,,,,,,,,,,,,,,,,,,,,,,,,,,,,2023-04-07_19h15.07.036,FaceAttractiveness,2022.2.5,145.05850933086427,
treatment,0% Never,100% Always,"images\ NASALTIP_CFD_WF_002_004_N.png
",0,0,0,0,4,52,432,72,,,,,,,,,,,,,,,,,,,,,,,,,,,,2023-04-07_19h15.07.036,FaceAttractiveness,2022.2.5,145.05850933086427,
treatment,0% Never,100% Always,"images\ LCHEEK_CFD_BM_234_172_N.png
",0,0,0,0,4,53,433,30,,,,,,,,,,,,,,,,,,,,,,,,,,,,2023-04-07_19h15.07.036,FaceAttractiveness,2022.2.5,145.05850933086427,
treatment,0% Never,100% Always,images\ LCHEEK_CFD_WF_250_167_N.png,0,0,0,0,4,54,434,36,,,,,,,,,,,,,,,,,,,,,,,,,,,,2023-04-07_19h15.07.036,FaceAttractiveness,2022.2.5,145.05850933086427,
treatment,0% Never,100% Always,images\FOREHEAD_CFD_AM_233_236_N.png,0,0,0,0,4,55,435,7,,,,,,,,,,,,,,,,,,,,,,,,,,,,2023-04-07_19h15.07.036,FaceAttractiveness,2022.2.5,145.05850933086427,
treatment,0% Never,100% Always,images\ NASALTIP_CFD_BM_213_134_N.png,0,0,0,0,4,56,436,67,,,,,,,,,,,,,,,,,,,,,,,,,,,,2023-04-07_19h15.07.036,FaceAttractiveness,2022.2.5,145.05850933086427,
treatment,0% Never,100% Always,images\ RCHEEK_CFD_BF_214_308_N.png,0,0,0,0,4,57,437,84,,,,,,,,,,,,,,,,,,,,,,,,,,,,2023-04-07_19h15.07.036,FaceAttractiveness,2022.2.5,145.05850933086427,
treatment,0% Never,100% Always,"images\ LIP_CFD_WF_002_004_N.png
",0,0,0,0,4,58,438,53,,,,,,,,,,,,,,,,,,,,,,,,,,,,2023-04-07_19h15.07.036,FaceAttractiveness,2022.2.5,145.05850933086427,
treatment,0% Never,100% Always,images\FOREHEAD_CFD_WF_002_004_N.png,0,0,0,0,4,59,439,15,,,,,,,,,,,,,,,,,,,,,,,,,,,,2023-04-07_19h15.07.036,FaceAttractiveness,2022.2.5,145.05850933086427,
treatment,0% Never,100% Always,images\ LCHEEK_087_M_M_N_A.png,0,0,0,0,4,60,440,21,,,,,,,,,,,,,,,,,,,,,,,,,,,,2023-04-07_19h15.07.036,FaceAttractiveness,2022.2.5,145.05850933086427,
treatment,0% Never,100% Always,images\FOREHEAD_CFD_LM_201_057_N.png,0,0,0,0,4,61,441,13,,,,,,,,,,,,,,,,,,,,,,,,,,,,2023-04-07_19h15.07.036,FaceAttractiveness,2022.2.5,145.05850933086427,
treatment,0% Never,100% Always,images\ LCHEEK_CFD_BF_214_308_N.png,0,0,0,0,4,62,442,27,,,,,,,,,,,,,,,,,,,,,,,,,,,,2023-04-07_19h15.07.036,FaceAttractiveness,2022.2.5,145.05850933086427,
treatment,0% Never,100% Always,"images\ RCHEEK_CFD_AM_233_236_N.png
",0,0,0,0,4,63,443,83,,,,,,,,,,,,,,,,,,,,,,,,,,,,2023-04-07_19h15.07.036,FaceAttractiveness,2022.2.5,145.05850933086427,
treatment,0% Never,100% Always,images\ LIP_CFD_BF_214_308_N.png,0,0,0,0,4,64,444,46,,,,,,,,,,,,,,,,,,,,,,,,,,,,2023-04-07_19h15.07.036,FaceAttractiveness,2022.2.5,145.05850933086427,
treatment,0% Never,100% Always,images\ LIP_CFD_WF_200_099_N.png,0,0,0,0,4,65,445,54,,,,,,,,,,,,,,,,,,,,,,,,,,,,2023-04-07_19h15.07.036,FaceAttractiveness,2022.2.5,145.05850933086427,
treatment,0% Never,100% Always,images\ RCHEEK_CFD_LM_203_026_N.png,0,0,0,0,4,66,446,90,,,,,,,,,,,,,,,,,,,,,,,,,,,,2023-04-07_19h15.07.036,FaceAttractiveness,2022.2.5,145.05850933086427,
treatment,0% Never,100% Always,"images\ NASALTIP_CFD_BM_234_172_N.png
",0,0,0,0,4,67,447,68,,,,,,,,,,,,,,,,,,,,,,,,,,,,2023-04-07_19h15.07.036,FaceAttractiveness,2022.2.5,145.05850933086427,
treatment,0% Never,100% Always,images\ LCHEEK_006_M_F_N_A.png,0,0,0,0,4,68,448,19,,,,,,,,,,,,,,,,,,,,,,,,,,,,2023-04-07_19h15.07.036,FaceAttractiveness,2022.2.5,145.05850933086427,
treatment,0% Never,100% Always,images\ LIP_CFD_BM_213_134_N.png,0,0,0,0,4,69,449,48,,,,,,,,,,,,,,,,,,,,,,,,,,,,2023-04-07_19h15.07.036,FaceAttractiveness,2022.2.5,145.05850933086427,
treatment,0% Never,100% Always,images\FOREHEAD_CFD_AF_237_223_N.png,0,0,0,0,4,70,450,5,,,,,,,,,,,,,,,,,,,,,,,,,,,,2023-04-07_19h15.07.036,FaceAttractiveness,2022.2.5,145.05850933086427,
treatment,0% Never,100% Always,images\ RCHEEK_CFD_LM_201_057_N.png,0,0,0,0,4,71,451,89,,,,,,,,,,,,,,,,,,,,,,,,,,,,2023-04-07_19h15.07.036,FaceAttractiveness,2022.2.5,145.05850933086427,
treatment,0% Never,100% Always,images\ NASALTIP_CFD_WF_250_167_N.png,0,0,0,0,4,72,452,74,,,,,,,,,,,,,,,,,,,,,,,,,,,,2023-04-07_19h15.07.036,FaceAttractiveness,2022.2.5,145.05850933086427,
treatment,0% Never,100% Always,images\ NASALTIP_CFD_WF_200_099_N.png,0,0,0,0,4,73,453,73,,,,,,,,,,,,,,,,,,,,,,,,,,,,2023-04-07_19h15.07.036,FaceAttractiveness,2022.2.5,145.05850933086427,
treatment,0% Never,100% Always,images\FOREHEAD_006_M_F_N_A.png,0,0,0,0,4,74,454,0,,,,,,,,,,,,,,,,,,,,,,,,,,,,2023-04-07_19h15.07.036,FaceAttractiveness,2022.2.5,145.05850933086427,
treatment,0% Never,100% Always,images\FOREHEAD_CFD_BF_224_002_N.png,0,0,0,0,4,75,455,9,,,,,,,,,,,,,,,,,,,,,,,,,,,,2023-04-07_19h15.07.036,FaceAttractiveness,2022.2.5,145.05850933086427,
treatment,0% Never,100% Always,images\ NASALTIP_CFD_AF_245_143_N.png,0,0,0,0,4,76,456,63,,,,,,,,,,,,,,,,,,,,,,,,,,,,2023-04-07_19h15.07.036,FaceAttractiveness,2022.2.5,145.05850933086427,
treatment,0% Never,100% Always,images\FOREHEAD_136_M_M_N_A.png,0,0,0,0,4,77,457,3,,,,,,,,,,,,,,,,,,,,,,,,,,,,2023-04-07_19h15.07.036,FaceAttractiveness,2022.2.5,145.05850933086427,
treatment,0% Never,100% Always,images\ NASALTIP_CFD_LF_224_176_N.png,0,0,0,0,4,78,458,69,,,,,,,,,,,,,,,,,,,,,,,,,,,,2023-04-07_19h15.07.036,FaceAttractiveness,2022.2.5,145.05850933086427,
treatment,0% Never,100% Always,images\ LIP_CFD_AF_231_357_N.png,0,0,0,0,4,79,459,42,,,,,,,,,,,,,,,,,,,,,,,,,,,,2023-04-07_19h15.07.036,FaceAttractiveness,2022.2.5,145.05850933086427,
treatment,0% Never,100% Always,images\ LIP_CFD_LM_201_057_N.png,0,0,0,0,4,80,460,51,,,,,,,,,,,,,,,,,,,,,,,,,,,,2023-04-07_19h15.07.036,FaceAttractiveness,2022.2.5,145.05850933086427,
treatment,0% Never,100% Always,images\ NASALTIP_CFD_AF_231_357_N.png,0,0,0,0,4,81,461,61,,,,,,,,,,,,,,,,,,,,,,,,,,,,2023-04-07_19h15.07.036,FaceAttractiveness,2022.2.5,145.05850933086427,
treatment,0% Never,100% Always,images\ NASALTIP_035_M_F_N_A.png,0,0,0,0,4,82,462,58,,,,,,,,,,,,,,,,,,,,,,,,,,,,2023-04-07_19h15.07.036,FaceAttractiveness,2022.2.5,145.05850933086427,
treatment,0% Never,100% Always,"images\ LCHEEK_CFD_AM_233_236_N.png
",0,0,0,0,4,83,463,26,,,,,,,,,,,,,,,,,,,,,,,,,,,,2023-04-07_19h15.07.036,FaceAttractiveness,2022.2.5,145.05850933086427,
treatment,0% Never,100% Always,images\ RCHEEK_CFD_BF_224_002_N.png,0,0,0,0,4,84,464,85,,,,,,,,,,,,,,,,,,,,,,,,,,,,2023-04-07_19h15.07.036,FaceAttractiveness,2022.2.5,145.05850933086427,
treatment,0% Never,100% Always,images\ RCHEEK_CFD_BM_213_134_N.png,0,0,0,0,4,85,465,86,,,,,,,,,,,,,,,,,,,,,,,,,,,,2023-04-07_19h15.07.036,FaceAttractiveness,2022.2.5,145.05850933086427,
treatment,0% Never,100% Always,images\FOREHEAD_CFD_LF_224_176_N.png,0,0,0,0,4,86,466,12,,,,,,,,,,,,,,,,,,,,,,,,,,,,2023-04-07_19h15.07.036,FaceAttractiveness,2022.2.5,145.05850933086427,
treatment,0% Never,100% Always,images\FOREHEAD_035_M_F_N_A.png,0,0,0,0,4,87,467,1,,,,,,,,,,,,,,,,,,,,,,,,,,,,2023-04-07_19h15.07.036,FaceAttractiveness,2022.2.5,145.05850933086427,
treatment,0% Never,100% Always,images\ LCHEEK_CFD_LM_203_026_N.png,0,0,0,0,4,88,468,33,,,,,,,,,,,,,,,,,,,,,,,,,,,,2023-04-07_19h15.07.036,FaceAttractiveness,2022.2.5,145.05850933086427,
treatment,0% Never,100% Always,images\ LCHEEK_CFD_WF_200_099_N.png,0,0,0,0,4,89,469,35,,,,,,,,,,,,,,,,,,,,,,,,,,,,2023-04-07_19h15.07.036,FaceAttractiveness,2022.2.5,145.05850933086427,
treatment,0% Never,100% Always,images\ RCHEEK_CFD_AF_245_143_N.png,0,0,0,0,4,90,470,82,,,,,,,,,,,,,,,,,,,,,,,,,,,,2023-04-07_19h15.07.036,FaceAttractiveness,2022.2.5,145.05850933086427,
treatment,0% Never,100% Always,images\ RCHEEK_035_M_F_N_A.png,0,0,0,0,4,91,471,77,,,,,,,,,,,,,,,,,,,,,,,,,,,,2023-04-07_19h15.07.036,FaceAttractiveness,2022.2.5,145.05850933086427,
treatment,0% Never,100% Always,"images\ NASALTIP_136_M_M_N_A.png
",0,0,0,0,4,92,472,60,,,,,,,,,,,,,,,,,,,,,,,,,,,,2023-04-07_19h15.07.036,FaceAttractiveness,2022.2.5,145.05850933086427,
treatment,0% Never,100% Always,images\ RCHEEK_CFD_WM_212_097_N.png,0,0,0,0,4,93,473,94,,,,,,,,,,,,,,,,,,,,,,,,,,,,2023-04-07_19h15.07.036,FaceAttractiveness,2022.2.5,145.05850933086427,
treatment,0% Never,100% Always,"images\ LCHEEK_136_M_M_N_A.png
",0,0,0,0,4,94,474,22,,,,,,,,,,,,,,,,,,,,,,,,,,,,2023-04-07_19h15.07.036,FaceAttractiveness,2022.2.5,145.05850933086427,
treatment,0% Never,100% Always,images\ LCHEEK_035_M_F_N_A.png,0,0,0,0,5,0,475,20,,,,,,,,,,,,,,,,,,,,,,,,,,,,2023-04-07_19h15.07.036,FaceAttractiveness,2022.2.5,145.05850933086427,
treatment,0% Never,100% Always,images\ LIP_CFD_LM_201_057_N.png,0,0,0,0,5,1,476,51,,,,,,,,,,,,,,,,,,,,,,,,,,,,2023-04-07_19h15.07.036,FaceAttractiveness,2022.2.5,145.05850933086427,
treatment,0% Never,100% Always,images\ LCHEEK_CFD_WF_250_167_N.png,0,0,0,0,5,2,477,36,,,,,,,,,,,,,,,,,,,,,,,,,,,,2023-04-07_19h15.07.036,FaceAttractiveness,2022.2.5,145.05850933086427,
treatment,0% Never,100% Always,images\ LCHEEK_CFD_WF_200_099_N.png,0,0,0,0,5,3,478,35,,,,,,,,,,,,,,,,,,,,,,,,,,,,2023-04-07_19h15.07.036,FaceAttractiveness,2022.2.5,145.05850933086427,
treatment,0% Never,100% Always,images\ RCHEEK_006_M_F_N_A.png,0,0,0,0,5,4,479,76,,,,,,,,,,,,,,,,,,,,,,,,,,,,2023-04-07_19h15.07.036,FaceAttractiveness,2022.2.5,145.05850933086427,
treatment,0% Never,100% Always,images\ LCHEEK_CFD_WM_212_097_N.png,0,0,0,0,5,5,480,37,,,,,,,,,,,,,,,,,,,,,,,,,,,,2023-04-07_19h15.07.036,FaceAttractiveness,2022.2.5,145.05850933086427,
treatment,0% Never,100% Always,images\ RCHEEK_CFD_LM_201_057_N.png,0,0,0,0,5,6,481,89,,,,,,,,,,,,,,,,,,,,,,,,,,,,2023-04-07_19h15.07.036,FaceAttractiveness,2022.2.5,145.05850933086427,
treatment,0% Never,100% Always,images\ NASALTIP_006_M_F_N_A.png,0,0,0,0,5,7,482,57,,,,,,,,,,,,,,,,,,,,,,,,,,,,2023-04-07_19h15.07.036,FaceAttractiveness,2022.2.5,145.05850933086427,
treatment,0% Never,100% Always,images\ LCHEEK_CFD_LM_201_057_N.png,0,0,0,0,5,8,483,32,,,,,,,,,,,,,,,,,,,,,,,,,,,,2023-04-07_19h15.07.036,FaceAttractiveness,2022.2.5,145.05850933086427,
treatment,0% Never,100% Always,images\FOREHEAD_087_M_M_N_A.png,0,0,0,0,5,9,484,2,,,,,,,,,,,,,,,,,,,,,,,,,,,,2023-04-07_19h15.07.036,FaceAttractiveness,2022.2.5,145.05850933086427,
treatment,0% Never,100% Always,images\ NASALTIP_CFD_LM_203_026_N.png,0,0,0,0,5,10,485,71,,,,,,,,,,,,,,,,,,,,,,,,,,,,2023-04-07_19h15.07.036,FaceAttractiveness,2022.2.5,145.05850933086427,
treatment,0% Never,100% Always,"images\ NASALTIP_CFD_WF_002_004_N.png
",0,0,0,0,5,11,486,72,,,,,,,,,,,,,,,,,,,,,,,,,,,,2023-04-07_19h15.07.036,FaceAttractiveness,2022.2.5,145.05850933086427,
treatment,0% Never,100% Always,images\ RCHEEK_CFD_AF_237_223_N.png,0,0,0,0,5,12,487,81,,,,,,,,,,,,,,,,,,,,,,,,,,,,2023-04-07_19h15.07.036,FaceAttractiveness,2022.2.5,145.05850933086427,
treatment,0% Never,100% Always,images\ LIP_087_M_M_N_A.png,0,0,0,0,5,13,488,40,,,,,,,,,,,,,,,,,,,,,,,,,,,,2023-04-07_19h15.07.036,FaceAttractiveness,2022.2.5,145.05850933086427,
treatment,0% Never,100% Always,images\FOREHEAD_CFD_BF_224_002_N.png,0,0,0,0,5,14,489,9,,,,,,,,,,,,,,,,,,,,,,,,,,,,2023-04-07_19h15.07.036,FaceAttractiveness,2022.2.5,145.05850933086427,
treatment,0% Never,100% Always,images\ LIP_006_M_F_N_A.png,0,0,0,0,5,15,490,38,,,,,,,,,,,,,,,,,,,,,,,,,,,,2023-04-07_19h15.07.036,FaceAttractiveness,2022.2.5,145.05850933086427,
treatment,0% Never,100% Always,images\ LCHEEK_CFD_AF_231_357_N.png,0,0,0,0,5,16,491,23,,,,,,,,,,,,,,,,,,,,,,,,,,,,2023-04-07_19h15.07.036,FaceAttractiveness,2022.2.5,145.05850933086427,
treatment,0% Never,100% Always,images\ LCHEEK_CFD_LM_203_026_N.png,0,0,0,0,5,17,492,33,,,,,,,,,,,,,,,,,,,,,,,,,,,,2023-04-07_19h15.07.036,FaceAttractiveness,2022.2.5,145.05850933086427,
treatment,0% Never,100% Always,images\ LIP_035_M_F_N_A.png,0,0,0,0,5,18,493,39,,,,,,,,,,,,,,,,,,,,,,,,,,,,2023-04-07_19h15.07.036,FaceAttractiveness,2022.2.5,145.05850933086427,
treatment,0% Never,100% Always,"images\ LCHEEK_CFD_WF_002_004_N.png
",0,0,0,0,5,19,494,34,,,,,,,,,,,,,,,,,,,,,,,,,,,,2023-04-07_19h15.07.036,FaceAttractiveness,2022.2.5,145.05850933086427,
treatment,0% Never,100% Always,images\ LIP_CFD_AF_231_357_N.png,0,0,0,0,5,20,495,42,,,,,,,,,,,,,,,,,,,,,,,,,,,,2023-04-07_19h15.07.036,FaceAttractiveness,2022.2.5,145.05850933086427,
treatment,0% Never,100% Always,images\ RCHEEK_CFD_AF_231_357_N.png,0,0,0,0,5,21,496,80,,,,,,,,,,,,,,,,,,,,,,,,,,,,2023-04-07_19h15.07.036,FaceAttractiveness,2022.2.5,145.05850933086427,
treatment,0% Never,100% Always,images\ RCHEEK_CFD_BF_224_002_N.png,0,0,0,0,5,22,497,85,,,,,,,,,,,,,,,,,,,,,,,,,,,,2023-04-07_19h15.07.036,FaceAttractiveness,2022.2.5,145.05850933086427,
treatment,0% Never,100% Always,images\ RCHEEK_CFD_BM_213_134_N.png,0,0,0,0,5,23,498,86,,,,,,,,,,,,,,,,,,,,,,,,,,,,2023-04-07_19h15.07.036,FaceAttractiveness,2022.2.5,145.05850933086427,
treatment,0% Never,100% Always,images\ NASALTIP_CFD_BM_213_134_N.png,0,0,0,0,5,24,499,67,,,,,,,,,,,,,,,,,,,,,,,,,,,,2023-04-07_19h15.07.036,FaceAttractiveness,2022.2.5,145.05850933086427,
treatment,0% Never,100% Always,"images\ RCHEEK_136_M_M_N_A.png
",0,0,0,0,5,25,500,79,,,,,,,,,,,,,,,,,,,,,,,,,,,,2023-04-07_19h15.07.036,FaceAttractiveness,2022.2.5,145.05850933086427,
treatment,0% Never,100% Always,"images\ LIP_CFD_BM_234_172_N.png
",0,0,0,0,5,26,501,49,,,,,,,,,,,,,,,,,,,,,,,,,,,,2023-04-07_19h15.07.036,FaceAttractiveness,2022.2.5,145.05850933086427,
treatment,0% Never,100% Always,images\FOREHEAD_CFD_WF_250_167_N.png,0,0,0,0,5,27,502,17,,,,,,,,,,,,,,,,,,,,,,,,,,,,2023-04-07_19h15.07.036,FaceAttractiveness,2022.2.5,145.05850933086427,
treatment,0% Never,100% Always,images\ LCHEEK_CFD_AF_245_143_N.png,0,0,0,0,5,28,503,25,,,,,,,,,,,,,,,,,,,,,,,,,,,,2023-04-07_19h15.07.036,FaceAttractiveness,2022.2.5,145.05850933086427,
treatment,0% Never,100% Always,images\ NASALTIP_CFD_AF_237_223_N.png,0,0,0,0,5,29,504,62,,,,,,,,,,,,,,,,,,,,,,,,,,,,2023-04-07_19h15.07.036,FaceAttractiveness,2022.2.5,145.05850933086427,
treatment,0% Never,100% Always,images\FOREHEAD_CFD_WF_002_004_N.png,0,0,0,0,5,30,505,15,,,,,,,,,,,,,,,,,,,,,,,,,,,,2023-04-07_19h15.07.036,FaceAttractiveness,2022.2.5,145.05850933086427,
treatment,0% Never,100% Always,"images\ RCHEEK_CFD_BM_234_172_N.png
",0,0,0,0,5,31,506,87,,,,,,,,,,,,,,,,,,,,,,,,,,,,2023-04-07_19h15.07.036,FaceAttractiveness,2022.2.5,145.05850933086427,
treatment,0% Never,100% Always,images\ LCHEEK_CFD_AF_237_223_N.png,0,0,0,0,5,32,507,24,,,,,,,,,,,,,,,,,,,,,,,,,,,,2023-04-07_19h15.07.036,FaceAttractiveness,2022.2.5,145.05850933086427,
treatment,0% Never,100% Always,images\FOREHEAD_CFD_AF_231_357_N.png,0,0,0,0,5,33,508,4,,,,,,,,,,,,,,,,,,,,,,,,,,,,2023-04-07_19h15.07.036,FaceAttractiveness,2022.2.5,145.05850933086427,
treatment,0% Never,100% Always,"images\ LCHEEK_CFD_BM_234_172_N.png
",0,0,0,0,5,34,509,30,,,,,,,,,,,,,,,,,,,,,,,,,,,,2023-04-07_19h15.07.036,FaceAttractiveness,2022.2.5,145.05850933086427,
treatment,0% Never,100% Always,images\ RCHEEK_CFD_BF_214_308_N.png,0,0,0,0,5,35,510,84,,,,,,,,,,,,,,,,,,,,,,,,,,,,2023-04-07_19h15.07.036,FaceAttractiveness,2022.2.5,145.05850933086427,
treatment,0% Never,100% Always,images\ NASALTIP_CFD_LM_201_057_N.png,0,0,0,0,5,36,511,70,,,,,,,,,,,,,,,,,,,,,,,,,,,,2023-04-07_19h15.07.036,FaceAttractiveness,2022.2.5,145.05850933086427,
treatment,0% Never,100% Always,images\ LCHEEK_087_M_M_N_A.png,0,0,0,0,5,37,512,21,,,,,,,,,,,,,,,,,,,,,,,,,,,,2023-04-07_19h15.07.036,FaceAttractiveness,2022.2.5,145.05850933086427,
treatment,0% Never,100% Always,images\FOREHEAD_CFD_AM_233_236_N.png,0,0,0,0,5,38,513,7,,,,,,,,,,,,,,,,,,,,,,,,,,,,2023-04-07_19h15.07.036,FaceAttractiveness,2022.2.5,145.05850933086427,
treatment,0% Never,100% Always,images\ LIP_CFD_AF_237_223_N.png,0,0,0,0,5,39,514,43,,,,,,,,,,,,,,,,,,,,,,,,,,,,2023-04-07_19h15.07.036,FaceAttractiveness,2022.2.5,145.05850933086427,
treatment,0% Never,100% Always,images\ RCHEEK_CFD_WM_212_097_N.png,0,0,0,0,5,40,515,94,,,,,,,,,,,,,,,,,,,,,,,,,,,,2023-04-07_19h15.07.036,FaceAttractiveness,2022.2.5,145.05850933086427,
treatment,0% Never,100% Always,images\FOREHEAD_CFD_WF_200_099_N.png,0,0,0,0,5,41,516,16,,,,,,,,,,,,,,,,,,,,,,,,,,,,2023-04-07_19h15.07.036,FaceAttractiveness,2022.2.5,145.05850933086427,
treatment,0% Never,100% Always,images\ RCHEEK_CFD_AF_245_143_N.png,0,0,0,0,5,42,517,82,,,,,,,,,,,,,,,,,,,,,,,,,,,,2023-04-07_19h15.07.036,FaceAttractiveness,2022.2.5,145.05850933086427,
treatment,0% Never,100% Always,images\ LIP_CFD_AF_245_143_N.png,0,0,0,0,5,43,518,44,,,,,,,,,,,,,,,,,,,,,,,,,,,,2023-04-07_19h15.07.036,FaceAttractiveness,2022.2.5,145.05850933086427,
treatment,0% Never,100% Always,images\ RCHEEK_CFD_LM_203_026_N.png,0,0,0,0,5,44,519,90,,,,,,,,,,,,,,,,,,,,,,,,,,,,2023-04-07_19h15.07.036,FaceAttractiveness,2022.2.5,145.05850933086427,
treatment,0% Never,100% Always,images\FOREHEAD_CFD_BM_234_172_N.png,0,0,0,0,5,45,520,11,,,,,,,,,,,,,,,,,,,,,,,,,,,,2023-04-07_19h15.07.036,FaceAttractiveness,2022.2.5,145.05850933086427,
treatment,0% Never,100% Always,images\ NASALTIP_CFD_BF_224_002_N.png,0,0,0,0,5,46,521,66,,,,,,,,,,,,,,,,,,,,,,,,,,,,2023-04-07_19h15.07.036,FaceAttractiveness,2022.2.5,145.05850933086427,
treatment,0% Never,100% Always,images\ LCHEEK_CFD_BM_213_134_N.png,0,0,0,0,5,47,522,29,,,,,,,,,,,,,,,,,,,,,,,,,,,,2023-04-07_19h15.07.036,FaceAttractiveness,2022.2.5,145.05850933086427,
treatment,0% Never,100% Always,images\ RCHEEK_087_M_M_N_A.png,0,0,0,0,5,48,523,78,,,,,,,,,,,,,,,,,,,,,,,,,,,,2023-04-07_19h15.07.036,FaceAttractiveness,2022.2.5,145.05850933086427,
treatment,0% Never,100% Always,images\FOREHEAD_035_M_F_N_A.png,0,0,0,0,5,49,524,1,,,,,,,,,,,,,,,,,,,,,,,,,,,,2023-04-07_19h15.07.036,FaceAttractiveness,2022.2.5,145.05850933086427,
treatment,0% Never,100% Always,"images\ LCHEEK_136_M_M_N_A.png
",0,0,0,0,5,50,525,22,,,,,,,,,,,,,,,,,,,,,,,,,,,,2023-04-07_19h15.07.036,FaceAttractiveness,2022.2.5,145.05850933086427,
treatment,0% Never,100% Always,"images\ LIP_CFD_WF_002_004_N.png
",0,0,0,0,5,51,526,53,,,,,,,,,,,,,,,,,,,,,,,,,,,,2023-04-07_19h15.07.036,FaceAttractiveness,2022.2.5,145.05850933086427,
treatment,0% Never,100% Always,images\ NASALTIP_CFD_AF_231_357_N.png,0,0,0,0,5,52,527,61,,,,,,,,,,,,,,,,,,,,,,,,,,,,2023-04-07_19h15.07.036,FaceAttractiveness,2022.2.5,145.05850933086427,
treatment,0% Never,100% Always,images\FOREHEAD_CFD_LF_224_176_N.png,0,0,0,0,5,53,528,12,,,,,,,,,,,,,,,,,,,,,,,,,,,,2023-04-07_19h15.07.036,FaceAttractiveness,2022.2.5,145.05850933086427,
treatment,0% Never,100% Always,images\ LCHEEK_CFD_BF_224_002_N.png,0,0,0,0,5,54,529,28,,,,,,,,,,,,,,,,,,,,,,,,,,,,2023-04-07_19h15.07.036,FaceAttractiveness,2022.2.5,145.05850933086427,
treatment,0% Never,100% Always,images\FOREHEAD_CFD_BF_214_308_N.png,0,0,0,0,5,55,530,8,,,,,,,,,,,,,,,,,,,,,,,,,,,,2023-04-07_19h15.07.036,FaceAttractiveness,2022.2.5,145.05850933086427,
treatment,0% Never,100% Always,images\ NASALTIP_CFD_WF_250_167_N.png,0,0,0,0,5,56,531,74,,,,,,,,,,,,,,,,,,,,,,,,,,,,2023-04-07_19h15.07.036,FaceAttractiveness,2022.2.5,145.05850933086427,
treatment,0% Never,100% Always,images\ NASALTIP_087_M_M_N_A.png,0,0,0,0,5,57,532,59,,,,,,,,,,,,,,,,,,,,,,,,,,,,2023-04-07_19h15.07.036,FaceAttractiveness,2022.2.5,145.05850933086427,
treatment,0% Never,100% Always,images\FOREHEAD_CFD_AF_245_143_N.png,0,0,0,0,5,58,533,6,,,,,,,,,,,,,,,,,,,,,,,,,,,,2023-04-07_19h15.07.036,FaceAttractiveness,2022.2.5,145.05850933086427,
treatment,0% Never,100% Always,images\ LIP_CFD_WF_200_099_N.png,0,0,0,0,5,59,534,54,,,,,,,,,,,,,,,,,,,,,,,,,,,,2023-04-07_19h15.07.036,FaceAttractiveness,2022.2.5,145.05850933086427,
treatment,0% Never,100% Always,images\ NASALTIP_CFD_WF_200_099_N.png,0,0,0,0,5,60,535,73,,,,,,,,,,,,,,,,,,,,,,,,,,,,2023-04-07_19h15.07.036,FaceAttractiveness,2022.2.5,145.05850933086427,
treatment,0% Never,100% Always,"images\ LIP_CFD_AM_233_236_N.png
