Task,LeftLabel,RightLabel,faceImages,RatingBlockOrder.thisRepN,RatingBlockOrder.thisTrialN,RatingBlockOrder.thisN,RatingBlockOrder.thisIndex,originalFaceTrials.thisRepN,originalFaceTrials.thisTrialN,originalFaceTrials.thisN,originalFaceTrials.thisIndex,face_image_q.started,slider_trustworthy.started,text_trustworthy.started,slider_aggressive.started,text_aggressive.started,Confirm.started,mouse_7.started,slider_trustworthy.response,slider_trustworthy.rt,slider_aggressive.response,slider_aggressive.rt,mouse_7.x,mouse_7.y,mouse_7.leftButton,mouse_7.midButton,mouse_7.rightButton,mouse_7.time,mouse_7.clicked_name,EndText.started,Name,Gender,Age,Ethnicity,date,expName,psychopyVersion,frameRate,
treatment,0% Never,100% Always,"images\ LIP_CFD_WF_002_004_N.png
",0,0,0,0,0,0,0,53,,,,,,,,,,,,,,,,,,,,,,,,2023-04-07_19h54.26.794,FaceAttractiveness,2022.2.5,143.92610256877634,
treatment,0% Never,100% Always,images\ LCHEEK_CFD_BF_214_308_N.png,0,0,0,0,0,1,1,27,,,,,,,,,,,,,,,,,,,,,,,,2023-04-07_19h54.26.794,FaceAttractiveness,2022.2.5,143.92610256877634,
treatment,0% Never,100% Always,images\FOREHEAD_087_M_M_N_A.png,0,0,0,0,0,2,2,2,,,,,,,,,,,,,,,,,,,,,,,,2023-04-07_19h54.26.794,FaceAttractiveness,2022.2.5,143.92610256877634,
treatment,0% Never,100% Always,images\ RCHEEK_CFD_BF_214_308_N.png,0,0,0,0,0,3,3,84,,,,,,,,,,,,,,,,,,,,,,,,2023-04-07_19h54.26.794,FaceAttractiveness,2022.2.5,143.92610256877634,
treatment,0% Never,100% Always,images\ RCHEEK_CFD_LM_201_057_N.png,0,0,0,0,0,4,4,89,,,,,,,,,,,,,,,,,,,,,,,,2023-04-07_19h54.26.794,FaceAttractiveness,2022.2.5,143.92610256877634,
treatment,0% Never,100% Always,images\ RCHEEK_CFD_LF_224_176_N.png,0,0,0,0,0,5,5,88,,,,,,,,,,,,,,,,,,,,,,,,2023-04-07_19h54.26.794,FaceAttractiveness,2022.2.5,143.92610256877634,
treatment,0% Never,100% Always,images\FOREHEAD_CFD_LF_224_176_N.png,0,0,0,0,0,6,6,12,,,,,,,,,,,,,,,,,,,,,,,,2023-04-07_19h54.26.794,FaceAttractiveness,2022.2.5,143.92610256877634,
treatment,0% Never,100% Always,images\FOREHEAD_CFD_WF_200_099_N.png,0,0,0,0,0,7,7,16,,,,,,,,,,,,,,,,,,,,,,,,2023-04-07_19h54.26.794,FaceAttractiveness,2022.2.5,143.92610256877634,
treatment,0% Never,100% Always,images\ LIP_CFD_BF_224_002_N.png,0,0,0,0,0,8,8,47,,,,,,,,,,,,,,,,,,,,,,,,2023-04-07_19h54.26.794,FaceAttractiveness,2022.2.5,143.92610256877634,
treatment,0% Never,100% Always,images\ LCHEEK_CFD_WF_250_167_N.png,0,0,0,0,0,9,9,36,,,,,,,,,,,,,,,,,,,,,,,,2023-04-07_19h54.26.794,FaceAttractiveness,2022.2.5,143.92610256877634,
treatment,0% Never,100% Always,images\FOREHEAD_CFD_WF_250_167_N.png,0,0,0,0,0,10,10,17,,,,,,,,,,,,,,,,,,,,,,,,2023-04-07_19h54.26.794,FaceAttractiveness,2022.2.5,143.92610256877634,
treatment,0% Never,100% Always,images\FOREHEAD_CFD_BF_214_308_N.png,0,0,0,0,0,11,11,8,,,,,,,,,,,,,,,,,,,,,,,,2023-04-07_19h54.26.794,FaceAttractiveness,2022.2.5,143.92610256877634,
treatment,0% Never,100% Always,images\ LIP_CFD_LM_201_057_N.png,0,0,0,0,0,12,12,51,,,,,,,,,,,,,,,,,,,,,,,,2023-04-07_19h54.26.794,FaceAttractiveness,2022.2.5,143.92610256877634,
treatment,0% Never,100% Always,"images\ NASALTIP_CFD_BM_234_172_N.png
",0,0,0,0,0,13,13,68,,,,,,,,,,,,,,,,,,,,,,,,2023-04-07_19h54.26.794,FaceAttractiveness,2022.2.5,143.92610256877634,
treatment,0% Never,100% Always,images\ RCHEEK_CFD_AF_231_357_N.png,0,0,0,0,0,14,14,80,,,,,,,,,,,,,,,,,,,,,,,,2023-04-07_19h54.26.794,FaceAttractiveness,2022.2.5,143.92610256877634,
treatment,0% Never,100% Always,images\ NASALTIP_CFD_LM_203_026_N.png,0,0,0,0,0,15,15,71,,,,,,,,,,,,,,,,,,,,,,,,2023-04-07_19h54.26.794,FaceAttractiveness,2022.2.5,143.92610256877634,
treatment,0% Never,100% Always,"images\ LCHEEK_CFD_AM_233_236_N.png
",0,0,0,0,0,16,16,26,,,,,,,,,,,,,,,,,,,,,,,,2023-04-07_19h54.26.794,FaceAttractiveness,2022.2.5,143.92610256877634,
treatment,0% Never,100% Always,images\FOREHEAD_CFD_BM_213_134_N.png,0,0,0,0,0,17,17,10,,,,,,,,,,,,,,,,,,,,,,,,2023-04-07_19h54.26.794,FaceAttractiveness,2022.2.5,143.92610256877634,
treatment,0% Never,100% Always,images\FOREHEAD_CFD_WM_212_097_N.png,0,0,0,0,0,18,18,18,,,,,,,,,,,,,,,,,,,,,,,,2023-04-07_19h54.26.794,FaceAttractiveness,2022.2.5,143.92610256877634,
treatment,0% Never,100% Always,images\ NASALTIP_CFD_AF_245_143_N.png,0,0,0,0,0,19,19,63,,,,,,,,,,,,,,,,,,,,,,,,2023-04-07_19h54.26.794,FaceAttractiveness,2022.2.5,143.92610256877634,
treatment,0% Never,100% Always,images\ RCHEEK_CFD_AF_245_143_N.png,0,0,0,0,0,20,20,82,,,,,,,,,,,,,,,,,,,,,,,,2023-04-07_19h54.26.794,FaceAttractiveness,2022.2.5,143.92610256877634,
treatment,0% Never,100% Always,images\ LIP_CFD_AF_245_143_N.png,0,0,0,0,0,21,21,44,,,,,,,,,,,,,,,,,,,,,,,,2023-04-07_19h54.26.794,FaceAttractiveness,2022.2.5,143.92610256877634,
treatment,0% Never,100% Always,"images\ RCHEEK_CFD_WF_002_004_N.png
",0,0,0,0,0,22,22,91,,,,,,,,,,,,,,,,,,,,,,,,2023-04-07_19h54.26.794,FaceAttractiveness,2022.2.5,143.92610256877634,
treatment,0% Never,100% Always,"images\ NASALTIP_136_M_M_N_A.png
",0,0,0,0,0,23,23,60,,,,,,,,,,,,,,,,,,,,,,,,2023-04-07_19h54.26.794,FaceAttractiveness,2022.2.5,143.92610256877634,
treatment,0% Never,100% Always,images\ LIP_087_M_M_N_A.png,0,0,0,0,0,24,24,40,,,,,,,,,,,,,,,,,,,,,,,,2023-04-07_19h54.26.794,FaceAttractiveness,2022.2.5,143.92610256877634,
treatment,0% Never,100% Always,images\ LIP_CFD_LM_203_026_N.png,0,0,0,0,0,25,25,52,,,,,,,,,,,,,,,,,,,,,,,,2023-04-07_19h54.26.794,FaceAttractiveness,2022.2.5,143.92610256877634,
treatment,0% Never,100% Always,"images\ NASALTIP_CFD_AM_233_236_N.png
",0,0,0,0,0,26,26,64,,,,,,,,,,,,,,,,,,,,,,,,2023-04-07_19h54.26.794,FaceAttractiveness,2022.2.5,143.92610256877634,
treatment,0% Never,100% Always,images\FOREHEAD_CFD_AM_233_236_N.png,0,0,0,0,0,27,27,7,,,,,,,,,,,,,,,,,,,,,,,,2023-04-07_19h54.26.794,FaceAttractiveness,2022.2.5,143.92610256877634,
treatment,0% Never,100% Always,images\FOREHEAD_CFD_AF_245_143_N.png,0,0,0,0,0,28,28,6,,,,,,,,,,,,,,,,,,,,,,,,2023-04-07_19h54.26.794,FaceAttractiveness,2022.2.5,143.92610256877634,
treatment,0% Never,100% Always,images\ LCHEEK_CFD_AF_237_223_N.png,0,0,0,0,0,29,29,24,,,,,,,,,,,,,,,,,,,,,,,,2023-04-07_19h54.26.794,FaceAttractiveness,2022.2.5,143.92610256877634,
treatment,0% Never,100% Always,images\ NASALTIP_006_M_F_N_A.png,0,0,0,0,0,30,30,57,,,,,,,,,,,,,,,,,,,,,,,,2023-04-07_19h54.26.794,FaceAttractiveness,2022.2.5,143.92610256877634,
treatment,0% Never,100% Always,images\ NASALTIP_035_M_F_N_A.png,0,0,0,0,0,31,31,58,,,,,,,,,,,,,,,,,,,,,,,,2023-04-07_19h54.26.794,FaceAttractiveness,2022.2.5,143.92610256877634,
treatment,0% Never,100% Always,images\ LCHEEK_087_M_M_N_A.png,0,0,0,0,0,32,32,21,,,,,,,,,,,,,,,,,,,,,,,,2023-04-07_19h54.26.794,FaceAttractiveness,2022.2.5,143.92610256877634,
treatment,0% Never,100% Always,images\ LCHEEK_CFD_WF_200_099_N.png,0,0,0,0,0,33,33,35,,,,,,,,,,,,,,,,,,,,,,,,2023-04-07_19h54.26.794,FaceAttractiveness,2022.2.5,143.92610256877634,
treatment,0% Never,100% Always,"images\ RCHEEK_CFD_AM_233_236_N.png
",0,0,0,0,0,34,34,83,,,,,,,,,,,,,,,,,,,,,,,,2023-04-07_19h54.26.794,FaceAttractiveness,2022.2.5,143.92610256877634,
treatment,0% Never,100% Always,images\ NASALTIP_CFD_BF_214_308_N.png,0,0,0,0,0,35,35,65,,,,,,,,,,,,,,,,,,,,,,,,2023-04-07_19h54.26.794,FaceAttractiveness,2022.2.5,143.92610256877634,
treatment,0% Never,100% Always,images\ RCHEEK_035_M_F_N_A.png,0,0,0,0,0,36,36,77,,,,,,,,,,,,,,,,,,,,,,,,2023-04-07_19h54.26.794,FaceAttractiveness,2022.2.5,143.92610256877634,
treatment,0% Never,100% Always,images\ RCHEEK_CFD_WF_250_167_N.png,0,0,0,0,0,37,37,93,,,,,,,,,,,,,,,,,,,,,,,,2023-04-07_19h54.26.794,FaceAttractiveness,2022.2.5,143.92610256877634,
treatment,0% Never,100% Always,images\ RCHEEK_CFD_WM_212_097_N.png,0,0,0,0,0,38,38,94,,,,,,,,,,,,,,,,,,,,,,,,2023-04-07_19h54.26.794,FaceAttractiveness,2022.2.5,143.92610256877634,
treatment,0% Never,100% Always,images\ NASALTIP_CFD_WF_200_099_N.png,0,0,0,0,0,39,39,73,,,,,,,,,,,,,,,,,,,,,,,,2023-04-07_19h54.26.794,FaceAttractiveness,2022.2.5,143.92610256877634,
treatment,0% Never,100% Always,images\ LIP_CFD_WF_250_167_N.png,0,0,0,0,0,40,40,55,,,,,,,,,,,,,,,,,,,,,,,,2023-04-07_19h54.26.794,FaceAttractiveness,2022.2.5,143.92610256877634,
treatment,0% Never,100% Always,images\ RCHEEK_CFD_LM_203_026_N.png,0,0,0,0,0,41,41,90,,,,,,,,,,,,,,,,,,,,,,,,2023-04-07_19h54.26.794,FaceAttractiveness,2022.2.5,143.92610256877634,
treatment,0% Never,100% Always,images\ LIP_CFD_WM_212_097_N.png,0,0,0,0,0,42,42,56,,,,,,,,,,,,,,,,,,,,,,,,2023-04-07_19h54.26.794,FaceAttractiveness,2022.2.5,143.92610256877634,
treatment,0% Never,100% Always,images\ RCHEEK_CFD_BF_224_002_N.png,0,0,0,0,0,43,43,85,,,,,,,,,,,,,,,,,,,,,,,,2023-04-07_19h54.26.794,FaceAttractiveness,2022.2.5,143.92610256877634,
treatment,0% Never,100% Always,images\ LCHEEK_CFD_BM_213_134_N.png,0,0,0,0,0,44,44,29,,,,,,,,,,,,,,,,,,,,,,,,2023-04-07_19h54.26.794,FaceAttractiveness,2022.2.5,143.92610256877634,
treatment,0% Never,100% Always,images\ NASALTIP_CFD_WM_212_097_N.png,0,0,0,0,0,45,45,75,,,,,,,,,,,,,,,,,,,,,,,,2023-04-07_19h54.26.794,FaceAttractiveness,2022.2.5,143.92610256877634,
treatment,0% Never,100% Always,images\FOREHEAD_006_M_F_N_A.png,0,0,0,0,0,46,46,0,,,,,,,,,,,,,,,,,,,,,,,,2023-04-07_19h54.26.794,FaceAttractiveness,2022.2.5,143.92610256877634,
treatment,0% Never,100% Always,images\ NASALTIP_087_M_M_N_A.png,0,0,0,0,0,47,47,59,,,,,,,,,,,,,,,,,,,,,,,,2023-04-07_19h54.26.794,FaceAttractiveness,2022.2.5,143.92610256877634,
treatment,0% Never,100% Always,images\ LCHEEK_035_M_F_N_A.png,0,0,0,0,0,48,48,20,,,,,,,,,,,,,,,,,,,,,,,,2023-04-07_19h54.26.794,FaceAttractiveness,2022.2.5,143.92610256877634,
treatment,0% Never,100% Always,images\ NASALTIP_CFD_AF_237_223_N.png,0,0,0,0,0,49,49,62,,,,,,,,,,,,,,,,,,,,,,,,2023-04-07_19h54.26.794,FaceAttractiveness,2022.2.5,143.92610256877634,
treatment,0% Never,100% Always,images\ LCHEEK_CFD_AF_245_143_N.png,0,0,0,0,0,50,50,25,,,,,,,,,,,,,,,,,,,,,,,,2023-04-07_19h54.26.794,FaceAttractiveness,2022.2.5,143.92610256877634,
treatment,0% Never,100% Always,images\ NASALTIP_CFD_BM_213_134_N.png,0,0,0,0,0,51,51,67,,,,,,,,,,,,,,,,,,,,,,,,2023-04-07_19h54.26.794,FaceAttractiveness,2022.2.5,143.92610256877634,
treatment,0% Never,100% Always,images\ LIP_CFD_BF_214_308_N.png,0,0,0,0,0,52,52,46,,,,,,,,,,,,,,,,,,,,,,,,2023-04-07_19h54.26.794,FaceAttractiveness,2022.2.5,143.92610256877634,
treatment,0% Never,100% Always,"images\ RCHEEK_136_M_M_N_A.png
",0,0,0,0,0,53,53,79,,,,,,,,,,,,,,,,,,,,,,,,2023-04-07_19h54.26.794,FaceAttractiveness,2022.2.5,143.92610256877634,
treatment,0% Never,100% Always,images\ LIP_CFD_AF_237_223_N.png,0,0,0,0,0,54,54,43,,,,,,,,,,,,,,,,,,,,,,,,2023-04-07_19h54.26.794,FaceAttractiveness,2022.2.5,143.92610256877634,
treatment,0% Never,100% Always,images\ LIP_035_M_F_N_A.png,0,0,0,0,0,55,55,39,,,,,,,,,,,,,,,,,,,,,,,,2023-04-07_19h54.26.794,FaceAttractiveness,2022.2.5,143.92610256877634,
treatment,0% Never,100% Always,images\ NASALTIP_CFD_WF_250_167_N.png,0,0,0,0,0,56,56,74,,,,,,,,,,,,,,,,,,,,,,,,2023-04-07_19h54.26.794,FaceAttractiveness,2022.2.5,143.92610256877634,
treatment,0% Never,100% Always,images\ NASALTIP_CFD_LF_224_176_N.png,0,0,0,0,0,57,57,69,,,,,,,,,,,,,,,,,,,,,,,,2023-04-07_19h54.26.794,FaceAttractiveness,2022.2.5,143.92610256877634,
treatment,0% Never,100% Always,images\ RCHEEK_006_M_F_N_A.png,0,0,0,0,0,58,58,76,,,,,,,,,,,,,,,,,,,,,,,,2023-04-07_19h54.26.794,FaceAttractiveness,2022.2.5,143.92610256877634,
treatment,0% Never,100% Always,"images\ RCHEEK_CFD_BM_234_172_N.png
",0,0,0,0,0,59,59,87,,,,,,,,,,,,,,,,,,,,,,,,2023-04-07_19h54.26.794,FaceAttractiveness,2022.2.5,143.92610256877634,
treatment,0% Never,100% Always,images\ LCHEEK_CFD_LM_203_026_N.png,0,0,0,0,0,60,60,33,,,,,,,,,,,,,,,,,,,,,,,,2023-04-07_19h54.26.794,FaceAttractiveness,2022.2.5,143.92610256877634,
treatment,0% Never,100% Always,images\ RCHEEK_CFD_BM_213_134_N.png,0,0,0,0,0,61,61,86,,,,,,,,,,,,,,,,,,,,,,,,2023-04-07_19h54.26.794,FaceAttractiveness,2022.2.5,143.92610256877634,
treatment,0% Never,100% Always,images\ RCHEEK_CFD_AF_237_223_N.png,0,0,0,0,0,62,62,81,,,,,,,,,,,,,,,,,,,,,,,,2023-04-07_19h54.26.794,FaceAttractiveness,2022.2.5,143.92610256877634,
treatment,0% Never,100% Always,images\ LIP_CFD_WF_200_099_N.png,0,0,0,0,0,63,63,54,,,,,,,,,,,,,,,,,,,,,,,,2023-04-07_19h54.26.794,FaceAttractiveness,2022.2.5,143.92610256877634,
treatment,0% Never,100% Always,images\ LIP_CFD_AF_231_357_N.png,0,0,0,0,0,64,64,42,,,,,,,,,,,,,,,,,,,,,,,,2023-04-07_19h54.26.794,FaceAttractiveness,2022.2.5,143.92610256877634,
treatment,0% Never,100% Always,images\ RCHEEK_CFD_WF_200_099_N.png,0,0,0,0,0,65,65,92,,,,,,,,,,,,,,,,,,,,,,,,2023-04-07_19h54.26.794,FaceAttractiveness,2022.2.5,143.92610256877634,
treatment,0% Never,100% Always,images\FOREHEAD_CFD_BM_234_172_N.png,0,0,0,0,0,66,66,11,,,,,,,,,,,,,,,,,,,,,,,,2023-04-07_19h54.26.794,FaceAttractiveness,2022.2.5,143.92610256877634,
treatment,0% Never,100% Always,images\FOREHEAD_CFD_BF_224_002_N.png,0,0,0,0,0,67,67,9,,,,,,,,,,,,,,,,,,,,,,,,2023-04-07_19h54.26.794,FaceAttractiveness,2022.2.5,143.92610256877634,
treatment,0% Never,100% Always,"images\ NASALTIP_CFD_WF_002_004_N.png
",0,0,0,0,0,68,68,72,,,,,,,,,,,,,,,,,,,,,,,,2023-04-07_19h54.26.794,FaceAttractiveness,2022.2.5,143.92610256877634,
treatment,0% Never,100% Always,"images\ LIP_CFD_BM_234_172_N.png
",0,0,0,0,0,69,69,49,,,,,,,,,,,,,,,,,,,,,,,,2023-04-07_19h54.26.794,FaceAttractiveness,2022.2.5,143.92610256877634,
treatment,0% Never,100% Always,images\FOREHEAD_CFD_LM_201_057_N.png,0,0,0,0,0,70,70,13,,,,,,,,,,,,,,,,,,,,,,,,2023-04-07_19h54.26.794,FaceAttractiveness,2022.2.5,143.92610256877634,
treatment,0% Never,100% Always,images\ LCHEEK_CFD_BF_224_002_N.png,0,0,0,0,0,71,71,28,,,,,,,,,,,,,,,,,,,,,,,,2023-04-07_19h54.26.794,FaceAttractiveness,2022.2.5,143.92610256877634,
treatment,0% Never,100% Always,images\ LIP_006_M_F_N_A.png,0,0,0,0,0,72,72,38,,,,,,,,,,,,,,,,,,,,,,,,2023-04-07_19h54.26.794,FaceAttractiveness,2022.2.5,143.92610256877634,
treatment,0% Never,100% Always,images\FOREHEAD_CFD_AF_237_223_N.png,0,0,0,0,0,73,73,5,,,,,,,,,,,,,,,,,,,,,,,,2023-04-07_19h54.26.794,FaceAttractiveness,2022.2.5,143.92610256877634,
treatment,0% Never,100% Always,images\FOREHEAD_136_M_M_N_A.png,0,0,0,0,0,74,74,3,,,,,,,,,,,,,,,,,,,,,,,,2023-04-07_19h54.26.794,FaceAttractiveness,2022.2.5,143.92610256877634,
treatment,0% Never,100% Always,"images\ LIP_CFD_AM_233_236_N.png
",0,0,0,0,0,75,75,45,,,,,,,,,,,,,,,,,,,,,,,,2023-04-07_19h54.26.794,FaceAttractiveness,2022.2.5,143.92610256877634,
treatment,0% Never,100% Always,images\ LIP_CFD_LF_224_176_N.png,0,0,0,0,0,76,76,50,,,,,,,,,,,,,,,,,,,,,,,,2023-04-07_19h54.26.794,FaceAttractiveness,2022.2.5,143.92610256877634,
treatment,0% Never,100% Always,images\ NASALTIP_CFD_LM_201_057_N.png,0,0,0,0,0,77,77,70,,,,,,,,,,,,,,,,,,,,,,,,2023-04-07_19h54.26.794,FaceAttractiveness,2022.2.5,143.92610256877634,
treatment,0% Never,100% Always,images\ LCHEEK_CFD_LF_224_176_N.png,0,0,0,0,0,78,78,31,,,,,,,,,,,,,,,,,,,,,,,,2023-04-07_19h54.26.794,FaceAttractiveness,2022.2.5,143.92610256877634,
treatment,0% Never,100% Always,"images\ LCHEEK_136_M_M_N_A.png
",0,0,0,0,0,79,79,22,,,,,,,,,,,,,,,,,,,,,,,,2023-04-07_19h54.26.794,FaceAttractiveness,2022.2.5,143.92610256877634,
treatment,0% Never,100% Always,images\FOREHEAD_035_M_F_N_A.png,0,0,0,0,0,80,80,1,,,,,,,,,,,,,,,,,,,,,,,,2023-04-07_19h54.26.794,FaceAttractiveness,2022.2.5,143.92610256877634,
treatment,0% Never,100% Always,images\ LIP_CFD_BM_213_134_N.png,0,0,0,0,0,81,81,48,,,,,,,,,,,,,,,,,,,,,,,,2023-04-07_19h54.26.794,FaceAttractiveness,2022.2.5,143.92610256877634,
treatment,0% Never,100% Always,images\FOREHEAD_CFD_AF_231_357_N.png,0,0,0,0,0,82,82,4,,,,,,,,,,,,,,,,,,,,,,,,2023-04-07_19h54.26.794,FaceAttractiveness,2022.2.5,143.92610256877634,
treatment,0% Never,100% Always,images\ LCHEEK_CFD_AF_231_357_N.png,0,0,0,0,0,83,83,23,,,,,,,,,,,,,,,,,,,,,,,,2023-04-07_19h54.26.794,FaceAttractiveness,2022.2.5,143.92610256877634,
treatment,0% Never,100% Always,images\ LCHEEK_CFD_LM_201_057_N.png,0,0,0,0,0,84,84,32,,,,,,,,,,,,,,,,,,,,,,,,2023-04-07_19h54.26.794,FaceAttractiveness,2022.2.5,143.92610256877634,
treatment,0% Never,100% Always,images\ NASALTIP_CFD_AF_231_357_N.png,0,0,0,0,0,85,85,61,,,,,,,,,,,,,,,,,,,,,,,,2023-04-07_19h54.26.794,FaceAttractiveness,2022.2.5,143.92610256877634,
treatment,0% Never,100% Always,images\ RCHEEK_087_M_M_N_A.png,0,0,0,0,0,86,86,78,,,,,,,,,,,,,,,,,,,,,,,,2023-04-07_19h54.26.794,FaceAttractiveness,2022.2.5,143.92610256877634,
treatment,0% Never,100% Always,images\ LCHEEK_CFD_WM_212_097_N.png,0,0,0,0,0,87,87,37,,,,,,,,,,,,,,,,,,,,,,,,2023-04-07_19h54.26.794,FaceAttractiveness,2022.2.5,143.92610256877634,
treatment,0% Never,100% Always,"images\ LCHEEK_CFD_BM_234_172_N.png
",0,0,0,0,0,88,88,30,,,,,,,,,,,,,,,,,,,,,,,,2023-04-07_19h54.26.794,FaceAttractiveness,2022.2.5,143.92610256877634,
treatment,0% Never,100% Always,images\FOREHEAD_CFD_LM_203_026_N.png,0,0,0,0,0,89,89,14,,,,,,,,,,,,,,,,,,,,,,,,2023-04-07_19h54.26.794,FaceAttractiveness,2022.2.5,143.92610256877634,
treatment,0% Never,100% Always,"images\ LIP_136_M_M_N_A.png
",0,0,0,0,0,90,90,41,,,,,,,,,,,,,,,,,,,,,,,,2023-04-07_19h54.26.794,FaceAttractiveness,2022.2.5,143.92610256877634,
treatment,0% Never,100% Always,images\ LCHEEK_006_M_F_N_A.png,0,0,0,0,0,91,91,19,,,,,,,,,,,,,,,,,,,,,,,,2023-04-07_19h54.26.794,FaceAttractiveness,2022.2.5,143.92610256877634,
treatment,0% Never,100% Always,"images\ LCHEEK_CFD_WF_002_004_N.png
",0,0,0,0,0,92,92,34,,,,,,,,,,,,,,,,,,,,,,,,2023-04-07_19h54.26.794,FaceAttractiveness,2022.2.5,143.92610256877634,
treatment,0% Never,100% Always,images\ NASALTIP_CFD_BF_224_002_N.png,0,0,0,0,0,93,93,66,,,,,,,,,,,,,,,,,,,,,,,,2023-04-07_19h54.26.794,FaceAttractiveness,2022.2.5,143.92610256877634,
treatment,0% Never,100% Always,images\FOREHEAD_CFD_WF_002_004_N.png,0,0,0,0,0,94,94,15,,,,,,,,,,,,,,,,,,,,,,,,2023-04-07_19h54.26.794,FaceAttractiveness,2022.2.5,143.92610256877634,
treatment,0% Never,100% Always,images\FOREHEAD_087_M_M_N_A.png,0,0,0,0,1,0,95,2,,,,,,,,,,,,,,,,,,,,,,,,2023-04-07_19h54.26.794,FaceAttractiveness,2022.2.5,143.92610256877634,
treatment,0% Never,100% Always,images\ LCHEEK_CFD_BF_224_002_N.png,0,0,0,0,1,1,96,28,,,,,,,,,,,,,,,,,,,,,,,,2023-04-07_19h54.26.794,FaceAttractiveness,2022.2.5,143.92610256877634,
treatment,0% Never,100% Always,images\ NASALTIP_006_M_F_N_A.png,0,0,0,0,1,2,97,57,,,,,,,,,,,,,,,,,,,,,,,,2023-04-07_19h54.26.794,FaceAttractiveness,2022.2.5,143.92610256877634,
treatment,0% Never,100% Always,images\FOREHEAD_CFD_WF_002_004_N.png,0,0,0,0,1,3,98,15,,,,,,,,,,,,,,,,,,,,,,,,2023-04-07_19h54.26.794,FaceAttractiveness,2022.2.5,143.92610256877634,
treatment,0% Never,100% Always,images\ LIP_087_M_M_N_A.png,0,0,0,0,1,4,99,40,,,,,,,,,,,,,,,,,,,,,,,,2023-04-07_19h54.26.794,FaceAttractiveness,2022.2.5,143.92610256877634,
treatment,0% Never,100% Always,images\ LCHEEK_CFD_WF_200_099_N.png,0,0,0,0,1,5,100,35,,,,,,,,,,,,,,,,,,,,,,,,2023-04-07_19h54.26.794,FaceAttractiveness,2022.2.5,143.92610256877634,
treatment,0% Never,100% Always,images\FOREHEAD_CFD_WM_212_097_N.png,0,0,0,0,1,6,101,18,,,,,,,,,,,,,,,,,,,,,,,,2023-04-07_19h54.26.794,FaceAttractiveness,2022.2.5,143.92610256877634,
treatment,0% Never,100% Always,images\ NASALTIP_035_M_F_N_A.png,0,0,0,0,1,7,102,58,,,,,,,,,,,,,,,,,,,,,,,,2023-04-07_19h54.26.794,FaceAttractiveness,2022.2.5,143.92610256877634,
treatment,0% Never,100% Always,images\ RCHEEK_CFD_LM_203_026_N.png,0,0,0,0,1,8,103,90,,,,,,,,,,,,,,,,,,,,,,,,2023-04-07_19h54.26.794,FaceAttractiveness,2022.2.5,143.92610256877634,
treatment,0% Never,100% Always,images\FOREHEAD_136_M_M_N_A.png,0,0,0,0,1,9,104,3,,,,,,,,,,,,,,,,,,,,,,,,2023-04-07_19h54.26.794,FaceAttractiveness,2022.2.5,143.92610256877634,
treatment,0% Never,100% Always,images\FOREHEAD_CFD_BM_234_172_N.png,0,0,0,0,1,10,105,11,,,,,,,,,,,,,,,,,,,,,,,,2023-04-07_19h54.26.794,FaceAttractiveness,2022.2.5,143.92610256877634,
treatment,0% Never,100% Always,"images\ LCHEEK_136_M_M_N_A.png
",0,0,0,0,1,11,106,22,,,,,,,,,,,,,,,,,,,,,,,,2023-04-07_19h54.26.794,FaceAttractiveness,2022.2.5,143.92610256877634,
treatment,0% Never,100% Always,images\ LCHEEK_CFD_BM_213_134_N.png,0,0,0,0,1,12,107,29,,,,,,,,,,,,,,,,,,,,,,,,2023-04-07_19h54.26.794,FaceAttractiveness,2022.2.5,143.92610256877634,
treatment,0% Never,100% Always,images\FOREHEAD_CFD_LF_224_176_N.png,0,0,0,0,1,13,108,12,,,,,,,,,,,,,,,,,,,,,,,,2023-04-07_19h54.26.794,FaceAttractiveness,2022.2.5,143.92610256877634,
treatment,0% Never,100% Always,"images\ LCHEEK_CFD_WF_002_004_N.png
",0,0,0,0,1,14,109,34,,,,,,,,,,,,,,,,,,,,,,,,2023-04-07_19h54.26.794,FaceAttractiveness,2022.2.5,143.92610256877634,
treatment,0% Never,100% Always,"images\ LCHEEK_CFD_BM_234_172_N.png
",0,0,0,0,1,15,110,30,,,,,,,,,,,,,,,,,,,,,,,,2023-04-07_19h54.26.794,FaceAttractiveness,2022.2.5,143.92610256877634,
treatment,0% Never,100% Always,"images\ NASALTIP_CFD_BM_234_172_N.png
",0,0,0,0,1,16,111,68,,,,,,,,,,,,,,,,,,,,,,,,2023-04-07_19h54.26.794,FaceAttractiveness,2022.2.5,143.92610256877634,
treatment,0% Never,100% Always,images\ LIP_CFD_AF_237_223_N.png,0,0,0,0,1,17,112,43,,,,,,,,,,,,,,,,,,,,,,,,2023-04-07_19h54.26.794,FaceAttractiveness,2022.2.5,143.92610256877634,
treatment,0% Never,100% Always,images\ NASALTIP_CFD_LF_224_176_N.png,0,0,0,0,1,18,113,69,,,,,,,,,,,,,,,,,,,,,,,,2023-04-07_19h54.26.794,FaceAttractiveness,2022.2.5,143.92610256877634,
treatment,0% Never,100% Always,images\ LCHEEK_CFD_AF_245_143_N.png,0,0,0,0,1,19,114,25,,,,,,,,,,,,,,,,,,,,,,,,2023-04-07_19h54.26.794,FaceAttractiveness,2022.2.5,143.92610256877634,
treatment,0% Never,100% Always,images\ LCHEEK_035_M_F_N_A.png,0,0,0,0,1,20,115,20,,,,,,,,,,,,,,,,,,,,,,,,2023-04-07_19h54.26.794,FaceAttractiveness,2022.2.5,143.92610256877634,
treatment,0% Never,100% Always,"images\ NASALTIP_CFD_WF_002_004_N.png
",0,0,0,0,1,21,116,72,,,,,,,,,,,,,,,,,,,,,,,,2023-04-07_19h54.26.794,FaceAttractiveness,2022.2.5,143.92610256877634,
treatment,0% Never,100% Always,images\ NASALTIP_CFD_WF_200_099_N.png,0,0,0,0,1,22,117,73,,,,,,,,,,,,,,,,,,,,,,,,2023-04-07_19h54.26.794,FaceAttractiveness,2022.2.5,143.92610256877634,
treatment,0% Never,100% Always,images\ RCHEEK_035_M_F_N_A.png,0,0,0,0,1,23,118,77,,,,,,,,,,,,,,,,,,,,,,,,2023-04-07_19h54.26.794,FaceAttractiveness,2022.2.5,143.92610256877634,
treatment,0% Never,100% Always,images\ NASALTIP_CFD_WF_250_167_N.png,0,0,0,0,1,24,119,74,,,,,,,,,,,,,,,,,,,,,,,,2023-04-07_19h54.26.794,FaceAttractiveness,2022.2.5,143.92610256877634,
treatment,0% Never,100% Always,images\ NASALTIP_CFD_LM_203_026_N.png,0,0,0,0,1,25,120,71,,,,,,,,,,,,,,,,,,,,,,,,2023-04-07_19h54.26.794,FaceAttractiveness,2022.2.5,143.92610256877634,
treatment,0% Never,100% Always,images\ RCHEEK_CFD_AF_231_357_N.png,0,0,0,0,1,26,121,80,,,,,,,,,,,,,,,,,,,,,,,,2023-04-07_19h54.26.794,FaceAttractiveness,2022.2.5,143.92610256877634,
treatment,0% Never,100% Always,images\ RCHEEK_CFD_BF_214_308_N.png,0,0,0,0,1,27,122,84,,,,,,,,,,,,,,,,,,,,,,,,2023-04-07_19h54.26.794,FaceAttractiveness,2022.2.5,143.92610256877634,
treatment,0% Never,100% Always,"images\ NASALTIP_CFD_AM_233_236_N.png
",0,0,0,0,1,28,123,64,,,,,,,,,,,,,,,,,,,,,,,,2023-04-07_19h54.26.794,FaceAttractiveness,2022.2.5,143.92610256877634,
treatment,0% Never,100% Always,images\ LIP_035_M_F_N_A.png,0,0,0,0,1,29,124,39,,,,,,,,,,,,,,,,,,,,,,,,2023-04-07_19h54.26.794,FaceAttractiveness,2022.2.5,143.92610256877634,
treatment,0% Never,100% Always,images\ RCHEEK_CFD_WM_212_097_N.png,0,0,0,0,1,30,125,94,,,,,,,,,,,,,,,,,,,,,,,,2023-04-07_19h54.26.794,FaceAttractiveness,2022.2.5,143.92610256877634,
treatment,0% Never,100% Always,images\ RCHEEK_CFD_AF_237_223_N.png,0,0,0,0,1,31,126,81,,,,,,,,,,,,,,,,,,,,,,,,2023-04-07_19h54.26.794,FaceAttractiveness,2022.2.5,143.92610256877634,
treatment,0% Never,100% Always,images\ LCHEEK_006_M_F_N_A.png,0,0,0,0,1,32,127,19,,,,,,,,,,,,,,,,,,,,,,,,2023-04-07_19h54.26.794,FaceAttractiveness,2022.2.5,143.92610256877634,
treatment,0% Never,100% Always,images\ NASALTIP_CFD_LM_201_057_N.png,0,0,0,0,1,33,128,70,,,,,,,,,,,,,,,,,,,,,,,,2023-04-07_19h54.26.794,FaceAttractiveness,2022.2.5,143.92610256877634,
treatment,0% Never,100% Always,images\FOREHEAD_CFD_WF_250_167_N.png,0,0,0,0,1,34,129,17,,,,,,,,,,,,,,,,,,,,,,,,2023-04-07_19h54.26.794,FaceAttractiveness,2022.2.5,143.92610256877634,
treatment,0% Never,100% Always,images\ RCHEEK_CFD_BF_224_002_N.png,0,0,0,0,1,35,130,85,,,,,,,,,,,,,,,,,,,,,,,,2023-04-07_19h54.26.794,FaceAttractiveness,2022.2.5,143.92610256877634,
treatment,0% Never,100% Always,images\ RCHEEK_CFD_WF_250_167_N.png,0,0,0,0,1,36,131,93,,,,,,,,,,,,,,,,,,,,,,,,2023-04-07_19h54.26.794,FaceAttractiveness,2022.2.5,143.92610256877634,
treatment,0% Never,100% Always,images\ NASALTIP_CFD_AF_237_223_N.png,0,0,0,0,1,37,132,62,,,,,,,,,,,,,,,,,,,,,,,,2023-04-07_19h54.26.794,FaceAttractiveness,2022.2.5,143.92610256877634,
treatment,0% Never,100% Always,images\ LCHEEK_CFD_AF_231_357_N.png,0,0,0,0,1,38,133,23,,,,,,,,,,,,,,,,,,,,,,,,2023-04-07_19h54.26.794,FaceAttractiveness,2022.2.5,143.92610256877634,
treatment,0% Never,100% Always,images\ LCHEEK_CFD_LM_201_057_N.png,0,0,0,0,1,39,134,32,,,,,,,,,,,,,,,,,,,,,,,,2023-04-07_19h54.26.794,FaceAttractiveness,2022.2.5,143.92610256877634,
treatment,0% Never,100% Always,images\FOREHEAD_CFD_LM_203_026_N.png,0,0,0,0,1,40,135,14,,,,,,,,,,,,,,,,,,,,,,,,2023-04-07_19h54.26.794,FaceAttractiveness,2022.2.5,143.92610256877634,
treatment,0% Never,100% Always,images\FOREHEAD_006_M_F_N_A.png,0,0,0,0,1,41,136,0,,,,,,,,,,,,,,,,,,,,,,,,2023-04-07_19h54.26.794,FaceAttractiveness,2022.2.5,143.92610256877634,
treatment,0% Never,100% Always,"images\ LCHEEK_CFD_AM_233_236_N.png
",0,0,0,0,1,42,137,26,,,,,,,,,,,,,,,,,,,,,,,,2023-04-07_19h54.26.794,FaceAttractiveness,2022.2.5,143.92610256877634,
treatment,0% Never,100% Always,images\ LIP_CFD_BM_213_134_N.png,0,0,0,0,1,43,138,48,,,,,,,,,,,,,,,,,,,,,,,,2023-04-07_19h54.26.794,FaceAttractiveness,2022.2.5,143.92610256877634,
treatment,0% Never,100% Always,"images\ LIP_CFD_BM_234_172_N.png
",0,0,0,0,1,44,139,49,,,,,,,,,,,,,,,,,,,,,,,,2023-04-07_19h54.26.794,FaceAttractiveness,2022.2.5,143.92610256877634,
treatment,0% Never,100% Always,images\FOREHEAD_CFD_LM_201_057_N.png,0,0,0,0,1,45,140,13,,,,,,,,,,,,,,,,,,,,,,,,2023-04-07_19h54.26.794,FaceAttractiveness,2022.2.5,143.92610256877634,
treatment,0% Never,100% Always,images\FOREHEAD_CFD_AM_233_236_N.png,0,0,0,0,1,46,141,7,,,,,,,,,,,,,,,,,,,,,,,,2023-04-07_19h54.26.794,FaceAttractiveness,2022.2.5,143.92610256877634,
treatment,0% Never,100% Always,"images\ RCHEEK_136_M_M_N_A.png
",0,0,0,0,1,47,142,79,,,,,,,,,,,,,,,,,,,,,,,,2023-04-07_19h54.26.794,FaceAttractiveness,2022.2.5,143.92610256877634,
treatment,0% Never,100% Always,images\ RCHEEK_CFD_BM_213_134_N.png,0,0,0,0,1,48,143,86,,,,,,,,,,,,,,,,,,,,,,,,2023-04-07_19h54.26.794,FaceAttractiveness,2022.2.5,143.92610256877634,
treatment,0% Never,100% Always,"images\ NASALTIP_136_M_M_N_A.png
",0,0,0,0,1,49,144,60,,,,,,,,,,,,,,,,,,,,,,,,2023-04-07_19h54.26.794,FaceAttractiveness,2022.2.5,143.92610256877634,
treatment,0% Never,100% Always,images\FOREHEAD_CFD_WF_200_099_N.png,0,0,0,0,1,50,145,16,,,,,,,,,,,,,,,,,,,,,,,,2023-04-07_19h54.26.794,FaceAttractiveness,2022.2.5,143.92610256877634,
treatment,0% Never,100% Always,images\ RCHEEK_CFD_LF_224_176_N.png,0,0,0,0,1,51,146,88,,,,,,,,,,,,,,,,,,,,,,,,2023-04-07_19h54.26.794,FaceAttractiveness,2022.2.5,143.92610256877634,
treatment,0% Never,100% Always,images\ LCHEEK_CFD_WM_212_097_N.png,0,0,0,0,1,52,147,37,,,,,,,,,,,,,,,,,,,,,,,,2023-04-07_19h54.26.794,FaceAttractiveness,2022.2.5,143.92610256877634,
treatment,0% Never,100% Always,images\ LIP_CFD_WF_200_099_N.png,0,0,0,0,1,53,148,54,,,,,,,,,,,,,,,,,,,,,,,,2023-04-07_19h54.26.794,FaceAttractiveness,2022.2.5,143.92610256877634,
treatment,0% Never,100% Always,images\ LIP_CFD_BF_214_308_N.png,0,0,0,0,1,54,149,46,,,,,,,,,,,,,,,,,,,,,,,,2023-04-07_19h54.26.794,FaceAttractiveness,2022.2.5,143.92610256877634,
treatment,0% Never,100% Always,images\FOREHEAD_CFD_BF_214_308_N.png,0,0,0,0,1,55,150,8,,,,,,,,,,,,,,,,,,,,,,,,2023-04-07_19h54.26.794,FaceAttractiveness,2022.2.5,143.92610256877634,
treatment,0% Never,100% Always,images\ NASALTIP_CFD_BM_213_134_N.png,0,0,0,0,1,56,151,67,,,,,,,,,,,,,,,,,,,,,,,,2023-04-07_19h54.26.794,FaceAttractiveness,2022.2.5,143.92610256877634,
treatment,0% Never,100% Always,images\ LCHEEK_CFD_LM_203_026_N.png,0,0,0,0,1,57,152,33,,,,,,,,,,,,,,,,,,,,,,,,2023-04-07_19h54.26.794,FaceAttractiveness,2022.2.5,143.92610256877634,
treatment,0% Never,100% Always,images\ NASALTIP_CFD_BF_214_308_N.png,0,0,0,0,1,58,153,65,,,,,,,,,,,,,,,,,,,,,,,,2023-04-07_19h54.26.794,FaceAttractiveness,2022.2.5,143.92610256877634,
treatment,0% Never,100% Always,images\ LIP_CFD_WM_212_097_N.png,0,0,0,0,1,59,154,56,,,,,,,,,,,,,,,,,,,,,,,,2023-04-07_19h54.26.794,FaceAttractiveness,2022.2.5,143.92610256877634,
treatment,0% Never,100% Always,images\ LIP_CFD_LM_201_057_N.png,0,0,0,0,1,60,155,51,,,,,,,,,,,,,,,,,,,,,,,,2023-04-07_19h54.26.794,FaceAttractiveness,2022.2.5,143.92610256877634,
treatment,0% Never,100% Always,images\ RCHEEK_CFD_LM_201_057_N.png,0,0,0,0,1,61,156,89,,,,,,,,,,,,,,,,,,,,,,,,2023-04-07_19h54.26.794,FaceAttractiveness,2022.2.5,143.92610256877634,
treatment,0% Never,100% Always,images\FOREHEAD_CFD_AF_237_223_N.png,0,0,0,0,1,62,157,5,,,,,,,,,,,,,,,,,,,,,,,,2023-04-07_19h54.26.794,FaceAttractiveness,2022.2.5,143.92610256877634,
treatment,0% Never,100% Always,images\ NASALTIP_CFD_WM_212_097_N.png,0,0,0,0,1,63,158,75,,,,,,,,,,,,,,,,,,,,,,,,2023-04-07_19h54.26.794,FaceAttractiveness,2022.2.5,143.92610256877634,
treatment,0% Never,100% Always,images\ LCHEEK_087_M_M_N_A.png,0,0,0,0,1,64,159,21,,,,,,,,,,,,,,,,,,,,,,,,2023-04-07_19h54.26.794,FaceAttractiveness,2022.2.5,143.92610256877634,
treatment,0% Never,100% Always,images\ LIP_CFD_LM_203_026_N.png,0,0,0,0,1,65,160,52,,,,,,,,,,,,,,,,,,,,,,,,2023-04-07_19h54.26.794,FaceAttractiveness,2022.2.5,143.92610256877634,
treatment,0% Never,100% Always,images\FOREHEAD_CFD_AF_245_143_N.png,0,0,0,0,1,66,161,6,,,,,,,,,,,,,,,,,,,,,,,,2023-04-07_19h54.26.794,FaceAttractiveness,2022.2.5,143.92610256877634,
treatment,0% Never,100% Always,images\ LCHEEK_CFD_BF_214_308_N.png,0,0,0,0,1,67,162,27,,,,,,,,,,,,,,,,,,,,,,,,2023-04-07_19h54.26.794,FaceAttractiveness,2022.2.5,143.92610256877634,
treatment,0% Never,100% Always,images\ LCHEEK_CFD_LF_224_176_N.png,0,0,0,0,1,68,163,31,,,,,,,,,,,,,,,,,,,,,,,,2023-04-07_19h54.26.794,FaceAttractiveness,2022.2.5,143.92610256877634,
treatment,0% Never,100% Always,images\ LCHEEK_CFD_AF_237_223_N.png,0,0,0,0,1,69,164,24,,,,,,,,,,,,,,,,,,,,,,,,2023-04-07_19h54.26.794,FaceAttractiveness,2022.2.5,143.92610256877634,
treatment,0% Never,100% Always,images\FOREHEAD_CFD_AF_231_357_N.png,0,0,0,0,1,70,165,4,,,,,,,,,,,,,,,,,,,,,,,,2023-04-07_19h54.26.794,FaceAttractiveness,2022.2.5,143.92610256877634,
treatment,0% Never,100% Always,images\ RCHEEK_CFD_WF_200_099_N.png,0,0,0,0,1,71,166,92,,,,,,,,,,,,,,,,,,,,,,,,2023-04-07_19h54.26.794,FaceAttractiveness,2022.2.5,143.92610256877634,
treatment,0% Never,100% Always,images\ RCHEEK_CFD_AF_245_143_N.png,0,0,0,0,1,72,167,82,,,,,,,,,,,,,,,,,,,,,,,,2023-04-07_19h54.26.794,FaceAttractiveness,2022.2.5,143.92610256877634,
treatment,0% Never,100% Always,images\ NASALTIP_CFD_AF_231_357_N.png,0,0,0,0,1,73,168,61,,,,,,,,,,,,,,,,,,,,,,,,2023-04-07_19h54.26.794,FaceAttractiveness,2022.2.5,143.92610256877634,
treatment,0% Never,100% Always,"images\ RCHEEK_CFD_BM_234_172_N.png
",0,0,0,0,1,74,169,87,,,,,,,,,,,,,,,,,,,,,,,,2023-04-07_19h54.26.794,FaceAttractiveness,2022.2.5,143.92610256877634,
treatment,0% Never,100% Always,"images\ LIP_CFD_AM_233_236_N.png
",0,0,0,0,1,75,170,45,,,,,,,,,,,,,,,,,,,,,,,,2023-04-07_19h54.26.794,FaceAttractiveness,2022.2.5,143.92610256877634,
treatment,0% Never,100% Always,images\FOREHEAD_CFD_BF_224_002_N.png,0,0,0,0,1,76,171,9,,,,,,,,,,,,,,,,,,,,,,,,2023-04-07_19h54.26.794,FaceAttractiveness,2022.2.5,143.92610256877634,
treatment,0% Never,100% Always,images\ NASALTIP_087_M_M_N_A.png,0,0,0,0,1,77,172,59,,,,,,,,,,,,,,,,,,,,,,,,2023-04-07_19h54.26.794,FaceAttractiveness,2022.2.5,143.92610256877634,
treatment,0% Never,100% Always,images\FOREHEAD_035_M_F_N_A.png,0,0,0,0,1,78,173,1,,,,,,,,,,,,,,,,,,,,,,,,2023-04-07_19h54.26.794,FaceAttractiveness,2022.2.5,143.92610256877634,
treatment,0% Never,100% Always,images\ LIP_CFD_AF_245_143_N.png,0,0,0,0,1,79,174,44,,,,,,,,,,,,,,,,,,,,,,,,2023-04-07_19h54.26.794,FaceAttractiveness,2022.2.5,143.92610256877634,
treatment,0% Never,100% Always,"images\ RCHEEK_CFD_WF_002_004_N.png
",0,0,0,0,1,80,175,91,,,,,,,,,,,,,,,,,,,,,,,,2023-04-07_19h54.26.794,FaceAttractiveness,2022.2.5,143.92610256877634,
treatment,0% Never,100% Always,images\ LIP_CFD_BF_224_002_N.png,0,0,0,0,1,81,176,47,,,,,,,,,,,,,,,,,,,,,,,,2023-04-07_19h54.26.794,FaceAttractiveness,2022.2.5,143.92610256877634,
treatment,0% Never,100% Always,"images\ LIP_136_M_M_N_A.png
",0,0,0,0,1,82,177,41,,,,,,,,,,,,,,,,,,,,,,,,2023-04-07_19h54.26.794,FaceAttractiveness,2022.2.5,143.92610256877634,
treatment,0% Never,100% Always,images\ LIP_CFD_AF_231_357_N.png,0,0,0,0,1,83,178,42,,,,,,,,,,,,,,,,,,,,,,,,2023-04-07_19h54.26.794,FaceAttractiveness,2022.2.5,143.92610256877634,
treatment,0% Never,100% Always,images\ RCHEEK_087_M_M_N_A.png,0,0,0,0,1,84,179,78,,,,,,,,,,,,,,,,,,,,,,,,2023-04-07_19h54.26.794,FaceAttractiveness,2022.2.5,143.92610256877634,
treatment,0% Never,100% Always,"images\ LIP_CFD_WF_002_004_N.png
",0,0,0,0,1,85,180,53,,,,,,,,,,,,,,,,,,,,,,,,2023-04-07_19h54.26.794,FaceAttractiveness,2022.2.5,143.92610256877634,
treatment,0% Never,100% Always,images\ NASALTIP_CFD_AF_245_143_N.png,0,0,0,0,1,86,181,63,,,,,,,,,,,,,,,,,,,,,,,,2023-04-07_19h54.26.794,FaceAttractiveness,2022.2.5,143.92610256877634,
treatment,0% Never,100% Always,images\FOREHEAD_CFD_BM_213_134_N.png,0,0,0,0,1,87,182,10,,,,,,,,,,,,,,,,,,,,,,,,2023-04-07_19h54.26.794,FaceAttractiveness,2022.2.5,143.92610256877634,
treatment,0% Never,100% Always,"images\ RCHEEK_CFD_AM_233_236_N.png
",0,0,0,0,1,88,183,83,,,,,,,,,,,,,,,,,,,,,,,,2023-04-07_19h54.26.794,FaceAttractiveness,2022.2.5,143.92610256877634,
treatment,0% Never,100% Always,images\ LCHEEK_CFD_WF_250_167_N.png,0,0,0,0,1,89,184,36,,,,,,,,,,,,,,,,,,,,,,,,2023-04-07_19h54.26.794,FaceAttractiveness,2022.2.5,143.92610256877634,
treatment,0% Never,100% Always,images\ RCHEEK_006_M_F_N_A.png,0,0,0,0,1,90,185,76,,,,,,,,,,,,,,,,,,,,,,,,2023-04-07_19h54.26.794,FaceAttractiveness,2022.2.5,143.92610256877634,
treatment,0% Never,100% Always,images\ NASALTIP_CFD_BF_224_002_N.png,0,0,0,0,1,91,186,66,,,,,,,,,,,,,,,,,,,,,,,,2023-04-07_19h54.26.794,FaceAttractiveness,2022.2.5,143.92610256877634,
treatment,0% Never,100% Always,images\ LIP_CFD_WF_250_167_N.png,0,0,0,0,1,92,187,55,,,,,,,,,,,,,,,,,,,,,,,,2023-04-07_19h54.26.794,FaceAttractiveness,2022.2.5,143.92610256877634,
treatment,0% Never,100% Always,images\ LIP_CFD_LF_224_176_N.png,0,0,0,0,1,93,188,50,,,,,,,,,,,,,,,,,,,,,,,,2023-04-07_19h54.26.794,FaceAttractiveness,2022.2.5,143.92610256877634,
treatment,0% Never,100% Always,images\ LIP_006_M_F_N_A.png,0,0,0,0,1,94,189,38,,,,,,,,,,,,,,,,,,,,,,,,2023-04-07_19h54.26.794,FaceAttractiveness,2022.2.5,143.92610256877634,
treatment,0% Never,100% Always,images\ RCHEEK_CFD_LM_203_026_N.png,0,0,0,0,2,0,190,90,,,,,,,,,,,,,,,,,,,,,,,,2023-04-07_19h54.26.794,FaceAttractiveness,2022.2.5,143.92610256877634,
treatment,0% Never,100% Always,images\ RCHEEK_CFD_BF_214_308_N.png,0,0,0,0,2,1,191,84,,,,,,,,,,,,,,,,,,,,,,,,2023-04-07_19h54.26.794,FaceAttractiveness,2022.2.5,143.92610256877634,
treatment,0% Never,100% Always,images\FOREHEAD_CFD_WF_002_004_N.png,0,0,0,0,2,2,192,15,,,,,,,,,,,,,,,,,,,,,,,,2023-04-07_19h54.26.794,FaceAttractiveness,2022.2.5,143.92610256877634,
treatment,0% Never,100% Always,images\FOREHEAD_035_M_F_N_A.png,0,0,0,0,2,3,193,1,,,,,,,,,,,,,,,,,,,,,,,,2023-04-07_19h54.26.794,FaceAttractiveness,2022.2.5,143.92610256877634,
treatment,0% Never,100% Always,images\ NASALTIP_006_M_F_N_A.png,0,0,0,0,2,4,194,57,,,,,,,,,,,,,,,,,,,,,,,,2023-04-07_19h54.26.794,FaceAttractiveness,2022.2.5,143.92610256877634,
treatment,0% Never,100% Always,images\ LCHEEK_035_M_F_N_A.png,0,0,0,0,2,5,195,20,,,,,,,,,,,,,,,,,,,,,,,,2023-04-07_19h54.26.794,FaceAttractiveness,2022.2.5,143.92610256877634,
treatment,0% Never,100% Always,"images\ RCHEEK_CFD_BM_234_172_N.png
",0,0,0,0,2,6,196,87,,,,,,,,,,,,,,,,,,,,,,,,2023-04-07_19h54.26.794,FaceAttractiveness,2022.2.5,143.92610256877634,
treatment,0% Never,100% Always,"images\ LIP_CFD_BM_234_172_N.png
",0,0,0,0,2,7,197,49,,,,,,,,,,,,,,,,,,,,,,,,2023-04-07_19h54.26.794,FaceAttractiveness,2022.2.5,143.92610256877634,
treatment,0% Never,100% Always,"images\ LIP_136_M_M_N_A.png
",0,0,0,0,2,8,198,41,,,,,,,,,,,,,,,,,,,,,,,,2023-04-07_19h54.26.794,FaceAttractiveness,2022.2.5,143.92610256877634,
treatment,0% Never,100% Always,images\ NASALTIP_CFD_AF_237_223_N.png,0,0,0,0,2,9,199,62,,,,,,,,,,,,,,,,,,,,,,,,2023-04-07_19h54.26.794,FaceAttractiveness,2022.2.5,143.92610256877634,
treatment,0% Never,100% Always,images\ NASALTIP_CFD_WF_250_167_N.png,0,0,0,0,2,10,200,74,,,,,,,,,,,,,,,,,,,,,,,,2023-04-07_19h54.26.794,FaceAttractiveness,2022.2.5,143.92610256877634,
treatment,0% Never,100% Always,images\ NASALTIP_087_M_M_N_A.png,0,0,0,0,2,11,201,59,,,,,,,,,,,,,,,,,,,,,,,,2023-04-07_19h54.26.794,FaceAttractiveness,2022.2.5,143.92610256877634,
treatment,0% Never,100% Always,images\ LCHEEK_CFD_LM_203_026_N.png,0,0,0,0,2,12,202,33,,,,,,,,,,,,,,,,,,,,,,,,2023-04-07_19h54.26.794,FaceAttractiveness,2022.2.5,143.92610256877634,
treatment,0% Never,100% Always,images\ RCHEEK_006_M_F_N_A.png,0,0,0,0,2,13,203,76,,,,,,,,,,,,,,,,,,,,,,,,2023-04-07_19h54.26.794,FaceAttractiveness,2022.2.5,143.92610256877634,
treatment,0% Never,100% Always,images\ LCHEEK_CFD_WM_212_097_N.png,0,0,0,0,2,14,204,37,,,,,,,,,,,,,,,,,,,,,,,,2023-04-07_19h54.26.794,FaceAttractiveness,2022.2.5,143.92610256877634,
treatment,0% Never,100% Always,images\ LCHEEK_CFD_AF_237_223_N.png,0,0,0,0,2,15,205,24,,,,,,,,,,,,,,,,,,,,,,,,2023-04-07_19h54.26.794,FaceAttractiveness,2022.2.5,143.92610256877634,
treatment,0% Never,100% Always,images\ RCHEEK_CFD_BM_213_134_N.png,0,0,0,0,2,16,206,86,,,,,,,,,,,,,,,,,,,,,,,,2023-04-07_19h54.26.794,FaceAttractiveness,2022.2.5,143.92610256877634,
treatment,0% Never,100% Always,images\ LIP_087_M_M_N_A.png,0,0,0,0,2,17,207,40,,,,,,,,,,,,,,,,,,,,,,,,2023-04-07_19h54.26.794,FaceAttractiveness,2022.2.5,143.92610256877634,
treatment,0% Never,100% Always,images\FOREHEAD_136_M_M_N_A.png,0,0,0,0,2,18,208,3,,,,,,,,,,,,,,,,,,,,,,,,2023-04-07_19h54.26.794,FaceAttractiveness,2022.2.5,143.92610256877634,
treatment,0% Never,100% Always,images\FOREHEAD_CFD_WM_212_097_N.png,0,0,0,0,2,19,209,18,,,,,,,,,,,,,,,,,,,,,,,,2023-04-07_19h54.26.794,FaceAttractiveness,2022.2.5,143.92610256877634,
treatment,0% Never,100% Always,"images\ RCHEEK_136_M_M_N_A.png
",0,0,0,0,2,20,210,79,,,,,,,,,,,,,,,,,,,,,,,,2023-04-07_19h54.26.794,FaceAttractiveness,2022.2.5,143.92610256877634,
treatment,0% Never,100% Always,images\ RCHEEK_CFD_WF_250_167_N.png,0,0,0,0,2,21,211,93,,,,,,,,,,,,,,,,,,,,,,,,2023-04-07_19h54.26.794,FaceAttractiveness,2022.2.5,143.92610256877634,
treatment,0% Never,100% Always,images\ LCHEEK_CFD_AF_245_143_N.png,0,0,0,0,2,22,212,25,,,,,,,,,,,,,,,,,,,,,,,,2023-04-07_19h54.26.794,FaceAttractiveness,2022.2.5,143.92610256877634,
treatment,0% Never,100% Always,images\ LIP_035_M_F_N_A.png,0,0,0,0,2,23,213,39,,,,,,,,,,,,,,,,,,,,,,,,2023-04-07_19h54.26.794,FaceAttractiveness,2022.2.5,143.92610256877634,
treatment,0% Never,100% Always,images\ NASALTIP_CFD_AF_231_357_N.png,0,0,0,0,2,24,214,61,,,,,,,,,,,,,,,,,,,,,,,,2023-04-07_19h54.26.794,FaceAttractiveness,2022.2.5,143.92610256877634,
treatment,0% Never,100% Always,images\ LIP_CFD_AF_237_223_N.png,0,0,0,0,2,25,215,43,,,,,,,,,,,,,,,,,,,,,,,,2023-04-07_19h54.26.794,FaceAttractiveness,2022.2.5,143.92610256877634,
treatment,0% Never,100% Always,images\FOREHEAD_CFD_WF_250_167_N.png,0,0,0,0,2,26,216,17,,,,,,,,,,,,,,,,,,,,,,,,2023-04-07_19h54.26.794,FaceAttractiveness,2022.2.5,143.92610256877634,
treatment,0% Never,100% Always,images\ LIP_CFD_LM_201_057_N.png,0,0,0,0,2,27,217,51,,,,,,,,,,,,,,,,,,,,,,,,2023-04-07_19h54.26.794,FaceAttractiveness,2022.2.5,143.92610256877634,
treatment,0% Never,100% Always,images\ NASALTIP_CFD_WM_212_097_N.png,0,0,0,0,2,28,218,75,,,,,,,,,,,,,,,,,,,,,,,,2023-04-07_19h54.26.794,FaceAttractiveness,2022.2.5,143.92610256877634,
treatment,0% Never,100% Always,images\ LIP_CFD_WF_250_167_N.png,0,0,0,0,2,29,219,55,,,,,,,,,,,,,,,,,,,,,,,,2023-04-07_19h54.26.794,FaceAttractiveness,2022.2.5,143.92610256877634,
treatment,0% Never,100% Always,images\ RCHEEK_CFD_WF_200_099_N.png,0,0,0,0,2,30,220,92,,,,,,,,,,,,,,,,,,,,,,,,2023-04-07_19h54.26.794,FaceAttractiveness,2022.2.5,143.92610256877634,
treatment,0% Never,100% Always,images\FOREHEAD_CFD_WF_200_099_N.png,0,0,0,0,2,31,221,16,,,,,,,,,,,,,,,,,,,,,,,,2023-04-07_19h54.26.794,FaceAttractiveness,2022.2.5,143.92610256877634,
treatment,0% Never,100% Always,images\ RCHEEK_CFD_WM_212_097_N.png,0,0,0,0,2,32,222,94,,,,,,,,,,,,,,,,,,,,,,,,2023-04-07_19h54.26.794,FaceAttractiveness,2022.2.5,143.92610256877634,
treatment,0% Never,100% Always,images\FOREHEAD_CFD_AF_231_357_N.png,0,0,0,0,2,33,223,4,,,,,,,,,,,,,,,,,,,,,,,,2023-04-07_19h54.26.794,FaceAttractiveness,2022.2.5,143.92610256877634,
treatment,0% Never,100% Always,images\FOREHEAD_CFD_LF_224_176_N.png,0,0,0,0,2,34,224,12,,,,,,,,,,,,,,,,,,,,,,,,2023-04-07_19h54.26.794,FaceAttractiveness,2022.2.5,143.92610256877634,
treatment,0% Never,100% Always,images\ LCHEEK_CFD_WF_200_099_N.png,0,0,0,0,2,35,225,35,,,,,,,,,,,,,,,,,,,,,,,,2023-04-07_19h54.26.794,FaceAttractiveness,2022.2.5,143.92610256877634,
treatment,0% Never,100% Always,"images\ LCHEEK_CFD_AM_233_236_N.png
",0,0,0,0,2,36,226,26,,,,,,,,,,,,,,,,,,,,,,,,2023-04-07_19h54.26.794,FaceAttractiveness,2022.2.5,143.92610256877634,
treatment,0% Never,100% Always,images\ LIP_CFD_AF_245_143_N.png,0,0,0,0,2,37,227,44,,,,,,,,,,,,,,,,,,,,,,,,2023-04-07_19h54.26.794,FaceAttractiveness,2022.2.5,143.92610256877634,
treatment,0% Never,100% Always,"images\ LCHEEK_CFD_BM_234_172_N.png
",0,0,0,0,2,38,228,30,,,,,,,,,,,,,,,,,,,,,,,,2023-04-07_19h54.26.794,FaceAttractiveness,2022.2.5,143.92610256877634,
treatment,0% Never,100% Always,images\ LCHEEK_CFD_LF_224_176_N.png,0,0,0,0,2,39,229,31,,,,,,,,,,,,,,,,,,,,,,,,2023-04-07_19h54.26.794,FaceAttractiveness,2022.2.5,143.92610256877634,
treatment,0% Never,100% Always,images\ RCHEEK_CFD_LM_201_057_N.png,0,0,0,0,2,40,230,89,,,,,,,,,,,,,,,,,,,,,,,,2023-04-07_19h54.26.794,FaceAttractiveness,2022.2.5,143.92610256877634,
treatment,0% Never,100% Always,images\ RCHEEK_CFD_AF_237_223_N.png,0,0,0,0,2,41,231,81,,,,,,,,,,,,,,,,,,,,,,,,2023-04-07_19h54.26.794,FaceAttractiveness,2022.2.5,143.92610256877634,
treatment,0% Never,100% Always,images\ LIP_CFD_LM_203_026_N.png,0,0,0,0,2,42,232,52,,,,,,,,,,,,,,,,,,,,,,,,2023-04-07_19h54.26.794,FaceAttractiveness,2022.2.5,143.92610256877634,
treatment,0% Never,100% Always,images\FOREHEAD_CFD_BM_213_134_N.png,0,0,0,0,2,43,233,10,,,,,,,,,,,,,,,,,,,,,,,,2023-04-07_19h54.26.794,FaceAttractiveness,2022.2.5,143.92610256877634,
treatment,0% Never,100% Always,images\ NASALTIP_CFD_LM_203_026_N.png,0,0,0,0,2,44,234,71,,,,,,,,,,,,,,,,,,,,,,,,2023-04-07_19h54.26.794,FaceAttractiveness,2022.2.5,143.92610256877634,
treatment,0% Never,100% Always,images\ NASALTIP_CFD_LF_224_176_N.png,0,0,0,0,2,45,235,69,,,,,,,,,,,,,,,,,,,,,,,,2023-04-07_19h54.26.794,FaceAttractiveness,2022.2.5,143.92610256877634,
treatment,0% Never,100% Always,images\ LCHEEK_CFD_BM_213_134_N.png,0,0,0,0,2,46,236,29,,,,,,,,,,,,,,,,,,,,,,,,2023-04-07_19h54.26.794,FaceAttractiveness,2022.2.5,143.92610256877634,
treatment,0% Never,100% Always,images\ LIP_CFD_BM_213_134_N.png,0,0,0,0,2,47,237,48,,,,,,,,,,,,,,,,,,,,,,,,2023-04-07_19h54.26.794,FaceAttractiveness,2022.2.5,143.92610256877634,
treatment,0% Never,100% Always,"images\ LIP_CFD_WF_002_004_N.png
",0,0,0,0,2,48,238,53,,,,,,,,,,,,,,,,,,,,,,,,2023-04-07_19h54.26.794,FaceAttractiveness,2022.2.5,143.92610256877634,
treatment,0% Never,100% Always,"images\ RCHEEK_CFD_WF_002_004_N.png
",0,0,0,0,2,49,239,91,,,,,,,,,,,,,,,,,,,,,,,,2023-04-07_19h54.26.794,FaceAttractiveness,2022.2.5,143.92610256877634,
treatment,0% Never,100% Always,images\ NASALTIP_CFD_BF_224_002_N.png,0,0,0,0,2,50,240,66,,,,,,,,,,,,,,,,,,,,,,,,2023-04-07_19h54.26.794,FaceAttractiveness,2022.2.5,143.92610256877634,
treatment,0% Never,100% Always,images\ RCHEEK_CFD_AF_245_143_N.png,0,0,0,0,2,51,241,82,,,,,,,,,,,,,,,,,,,,,,,,2023-04-07_19h54.26.794,FaceAttractiveness,2022.2.5,143.92610256877634,
treatment,0% Never,100% Always,images\ NASALTIP_CFD_WF_200_099_N.png,0,0,0,0,2,52,242,73,,,,,,,,,,,,,,,,,,,,,,,,2023-04-07_19h54.26.794,FaceAttractiveness,2022.2.5,143.92610256877634,
treatment,0% Never,100% Always,images\ LIP_CFD_BF_214_308_N.png,0,0,0,0,2,53,243,46,,,,,,,,,,,,,,,,,,,,,,,,2023-04-07_19h54.26.794,FaceAttractiveness,2022.2.5,143.92610256877634,
treatment,0% Never,100% Always,images\ RCHEEK_087_M_M_N_A.png,0,0,0,0,2,54,244,78,,,,,,,,,,,,,,,,,,,,,,,,2023-04-07_19h54.26.794,FaceAttractiveness,2022.2.5,143.92610256877634,
treatment,0% Never,100% Always,images\FOREHEAD_CFD_BF_224_002_N.png,0,0,0,0,2,55,245,9,,,,,,,,,,,,,,,,,,,,,,,,2023-04-07_19h54.26.794,FaceAttractiveness,2022.2.5,143.92610256877634,
treatment,0% Never,100% Always,images\ RCHEEK_CFD_AF_231_357_N.png,0,0,0,0,2,56,246,80,,,,,,,,,,,,,,,,,,,,,,,,2023-04-07_19h54.26.794,FaceAttractiveness,2022.2.5,143.92610256877634,
treatment,0% Never,100% Always,images\ NASALTIP_CFD_AF_245_143_N.png,0,0,0,0,2,57,247,63,,,,,,,,,,,,,,,,,,,,,,,,2023-04-07_19h54.26.794,FaceAttractiveness,2022.2.5,143.92610256877634,
treatment,0% Never,100% Always,images\ LCHEEK_006_M_F_N_A.png,0,0,0,0,2,58,248,19,,,,,,,,,,,,,,,,,,,,,,,,2023-04-07_19h54.26.794,FaceAttractiveness,2022.2.5,143.92610256877634,
treatment,0% Never,100% Always,images\FOREHEAD_CFD_AM_233_236_N.png,0,0,0,0,2,59,249,7,,,,,,,,,,,,,,,,,,,,,,,,2023-04-07_19h54.26.794,FaceAttractiveness,2022.2.5,143.92610256877634,
treatment,0% Never,100% Always,images\ LIP_CFD_WF_200_099_N.png,0,0,0,0,2,60,250,54,,,,,,,,,,,,,,,,,,,,,,,,2023-04-07_19h54.26.794,FaceAttractiveness,2022.2.5,143.92610256877634,
treatment,0% Never,100% Always,images\FOREHEAD_CFD_AF_237_223_N.png,0,0,0,0,2,61,251,5,,,,,,,,,,,,,,,,,,,,,,,,2023-04-07_19h54.26.794,FaceAttractiveness,2022.2.5,143.92610256877634,
treatment,0% Never,100% Always,images\FOREHEAD_006_M_F_N_A.png,0,0,0,0,2,62,252,0,,,,,,,,,,,,,,,,,,,,,,,,2023-04-07_19h54.26.794,FaceAttractiveness,2022.2.5,143.92610256877634,
treatment,0% Never,100% Always,"images\ LCHEEK_136_M_M_N_A.png
",0,0,0,0,2,63,253,22,,,,,,,,,,,,,,,,,,,,,,,,2023-04-07_19h54.26.794,FaceAttractiveness,2022.2.5,143.92610256877634,
treatment,0% Never,100% Always,images\ NASALTIP_CFD_BF_214_308_N.png,0,0,0,0,2,64,254,65,,,,,,,,,,,,,,,,,,,,,,,,2023-04-07_19h54.26.794,FaceAttractiveness,2022.2.5,143.92610256877634,
treatment,0% Never,100% Always,"images\ NASALTIP_136_M_M_N_A.png
",0,0,0,0,2,65,255,60,,,,,,,,,,,,,,,,,,,,,,,,2023-04-07_19h54.26.794,FaceAttractiveness,2022.2.5,143.92610256877634,
treatment,0% Never,100% Always,"images\ NASALTIP_CFD_AM_233_236_N.png
",0,0,0,0,2,66,256,64,,,,,,,,,,,,,,,,,,,,,,,,2023-04-07_19h54.26.794,FaceAttractiveness,2022.2.5,143.92610256877634,
treatment,0% Never,100% Always,images\FOREHEAD_CFD_LM_203_026_N.png,0,0,0,0,2,67,257,14,,,,,,,,,,,,,,,,,,,,,,,,2023-04-07_19h54.26.794,FaceAttractiveness,2022.2.5,143.92610256877634,
treatment,0% Never,100% Always,images\FOREHEAD_CFD_LM_201_057_N.png,0,0,0,0,2,68,258,13,,,,,,,,,,,,,,,,,,,,,,,,2023-04-07_19h54.26.794,FaceAttractiveness,2022.2.5,143.92610256877634,
treatment,0% Never,100% Always,images\FOREHEAD_CFD_AF_245_143_N.png,0,0,0,0,2,69,259,6,,,,,,,,,,,,,,,,,,,,,,,,2023-04-07_19h54.26.794,FaceAttractiveness,2022.2.5,143.92610256877634,
treatment,0% Never,100% Always,"images\ LCHEEK_CFD_WF_002_004_N.png
",0,0,0,0,2,70,260,34,,,,,,,,,,,,,,,,,,,,,,,,2023-04-07_19h54.26.794,FaceAttractiveness,2022.2.5,143.92610256877634,
treatment,0% Never,100% Always,"images\ NASALTIP_CFD_BM_234_172_N.png
",0,0,0,0,2,71,261,68,,,,,,,,,,,,,,,,,,,,,,,,2023-04-07_19h54.26.794,FaceAttractiveness,2022.2.5,143.92610256877634,
treatment,0% Never,100% Always,images\ LCHEEK_CFD_AF_231_357_N.png,0,0,0,0,2,72,262,23,,,,,,,,,,,,,,,,,,,,,,,,2023-04-07_19h54.26.794,FaceAttractiveness,2022.2.5,143.92610256877634,
treatment,0% Never,100% Always,images\FOREHEAD_CFD_BM_234_172_N.png,0,0,0,0,2,73,263,11,,,,,,,,,,,,,,,,,,,,,,,,2023-04-07_19h54.26.794,FaceAttractiveness,2022.2.5,143.92610256877634,
treatment,0% Never,100% Always,images\ NASALTIP_CFD_BM_213_134_N.png,0,0,0,0,2,74,264,67,,,,,,,,,,,,,,,,,,,,,,,,2023-04-07_19h54.26.794,FaceAttractiveness,2022.2.5,143.92610256877634,
treatment,0% Never,100% Always,images\ LCHEEK_CFD_BF_224_002_N.png,0,0,0,0,2,75,265,28,,,,,,,,,,,,,,,,,,,,,,,,2023-04-07_19h54.26.794,FaceAttractiveness,2022.2.5,143.92610256877634,
treatment,0% Never,100% Always,images\ NASALTIP_035_M_F_N_A.png,0,0,0,0,2,76,266,58,,,,,,,,,,,,,,,,,,,,,,,,2023-04-07_19h54.26.794,FaceAttractiveness,2022.2.5,143.92610256877634,
treatment,0% Never,100% Always,images\ RCHEEK_CFD_LF_224_176_N.png,0,0,0,0,2,77,267,88,,,,,,,,,,,,,,,,,,,,,,,,2023-04-07_19h54.26.794,FaceAttractiveness,2022.2.5,143.92610256877634,
treatment,0% Never,100% Always,images\ NASALTIP_CFD_LM_201_057_N.png,0,0,0,0,2,78,268,70,,,,,,,,,,,,,,,,,,,,,,,,2023-04-07_19h54.26.794,FaceAttractiveness,2022.2.5,143.92610256877634,
treatment,0% Never,100% Always,images\ LIP_CFD_BF_224_002_N.png,0,0,0,0,2,79,269,47,,,,,,,,,,,,,,,,,,,,,,,,2023-04-07_19h54.26.794,FaceAttractiveness,2022.2.5,143.92610256877634,
treatment,0% Never,100% Always,images\FOREHEAD_087_M_M_N_A.png,0,0,0,0,2,80,270,2,,,,,,,,,,,,,,,,,,,,,,,,2023-04-07_19h54.26.794,FaceAttractiveness,2022.2.5,143.92610256877634,
treatment,0% Never,100% Always,images\ LCHEEK_CFD_BF_214_308_N.png,0,0,0,0,2,81,271,27,,,,,,,,,,,,,,,,,,,,,,,,2023-04-07_19h54.26.794,FaceAttractiveness,2022.2.5,143.92610256877634,
treatment,0% Never,100% Always,images\FOREHEAD_CFD_BF_214_308_N.png,0,0,0,0,2,82,272,8,,,,,,,,,,,,,,,,,,,,,,,,2023-04-07_19h54.26.794,FaceAttractiveness,2022.2.5,143.92610256877634,
treatment,0% Never,100% Always,images\ LIP_006_M_F_N_A.png,0,0,0,0,2,83,273,38,,,,,,,,,,,,,,,,,,,,,,,,2023-04-07_19h54.26.794,FaceAttractiveness,2022.2.5,143.92610256877634,
treatment,0% Never,100% Always,images\ LIP_CFD_WM_212_097_N.png,0,0,0,0,2,84,274,56,,,,,,,,,,,,,,,,,,,,,,,,2023-04-07_19h54.26.794,FaceAttractiveness,2022.2.5,143.92610256877634,
treatment,0% Never,100% Always,images\ LIP_CFD_AF_231_357_N.png,0,0,0,0,2,85,275,42,,,,,,,,,,,,,,,,,,,,,,,,2023-04-07_19h54.26.794,FaceAttractiveness,2022.2.5,143.92610256877634,
treatment,0% Never,100% Always,images\ LCHEEK_CFD_WF_250_167_N.png,0,0,0,0,2,86,276,36,,,,,,,,,,,,,,,,,,,,,,,,2023-04-07_19h54.26.794,FaceAttractiveness,2022.2.5,143.92610256877634,
treatment,0% Never,100% Always,"images\ RCHEEK_CFD_AM_233_236_N.png
",0,0,0,0,2,87,277,83,,,,,,,,,,,,,,,,,,,,,,,,2023-04-07_19h54.26.794,FaceAttractiveness,2022.2.5,143.92610256877634,
treatment,0% Never,100% Always,"images\ LIP_CFD_AM_233_236_N.png
",0,0,0,0,2,88,278,45,,,,,,,,,,,,,,,,,,,,,,,,2023-04-07_19h54.26.794,FaceAttractiveness,2022.2.5,143.92610256877634,
treatment,0% Never,100% Always,"images\ NASALTIP_CFD_WF_002_004_N.png
",0,0,0,0,2,89,279,72,,,,,,,,,,,,,,,,,,,,,,,,2023-04-07_19h54.26.794,FaceAttractiveness,2022.2.5,143.92610256877634,
treatment,0% Never,100% Always,images\ RCHEEK_035_M_F_N_A.png,0,0,0,0,2,90,280,77,,,,,,,,,,,,,,,,,,,,,,,,2023-04-07_19h54.26.794,FaceAttractiveness,2022.2.5,143.92610256877634,
treatment,0% Never,100% Always,images\ LCHEEK_087_M_M_N_A.png,0,0,0,0,2,91,281,21,,,,,,,,,,,,,,,,,,,,,,,,2023-04-07_19h54.26.794,FaceAttractiveness,2022.2.5,143.92610256877634,
treatment,0% Never,100% Always,images\ RCHEEK_CFD_BF_224_002_N.png,0,0,0,0,2,92,282,85,,,,,,,,,,,,,,,,,,,,,,,,2023-04-07_19h54.26.794,FaceAttractiveness,2022.2.5,143.92610256877634,
treatment,0% Never,100% Always,images\ LCHEEK_CFD_LM_201_057_N.png,0,0,0,0,2,93,283,32,,,,,,,,,,,,,,,,,,,,,,,,2023-04-07_19h54.26.794,FaceAttractiveness,2022.2.5,143.92610256877634,
treatment,0% Never,100% Always,images\ LIP_CFD_LF_224_176_N.png,0,0,0,0,2,94,284,50,,,,,,,,,,,,,,,,,,,,,,,,2023-04-07_19h54.26.794,FaceAttractiveness,2022.2.5,143.92610256877634,
treatment,0% Never,100% Always,images\ NASALTIP_CFD_BF_224_002_N.png,0,0,0,0,3,0,285,66,,,,,,,,,,,,,,,,,,,,,,,,2023-04-07_19h54.26.794,FaceAttractiveness,2022.2.5,143.92610256877634,
treatment,0% Never,100% Always,images\FOREHEAD_CFD_LF_224_176_N.png,0,0,0,0,3,1,286,12,,,,,,,,,,,,,,,,,,,,,,,,2023-04-07_19h54.26.794,FaceAttractiveness,2022.2.5,143.92610256877634,
treatment,0% Never,100% Always,images\ RCHEEK_CFD_AF_237_223_N.png,0,0,0,0,3,2,287,81,,,,,,,,,,,,,,,,,,,,,,,,2023-04-07_19h54.26.794,FaceAttractiveness,2022.2.5,143.92610256877634,
treatment,0% Never,100% Always,images\ LCHEEK_CFD_BF_224_002_N.png,0,0,0,0,3,3,288,28,,,,,,,,,,,,,,,,,,,,,,,,2023-04-07_19h54.26.794,FaceAttractiveness,2022.2.5,143.92610256877634,
treatment,0% Never,100% Always,images\ LIP_CFD_LM_201_057_N.png,0,0,0,0,3,4,289,51,,,,,,,,,,,,,,,,,,,,,,,,2023-04-07_19h54.26.794,FaceAttractiveness,2022.2.5,143.92610256877634,
treatment,0% Never,100% Always,images\FOREHEAD_CFD_AM_233_236_N.png,0,0,0,0,3,5,290,7,,,,,,,,,,,,,,,,,,,,,,,,2023-04-07_19h54.26.794,FaceAttractiveness,2022.2.5,143.92610256877634,
treatment,0% Never,100% Always,images\ LCHEEK_CFD_LM_203_026_N.png,0,0,0,0,3,6,291,33,,,,,,,,,,,,,,,,,,,,,,,,2023-04-07_19h54.26.794,FaceAttractiveness,2022.2.5,143.92610256877634,
treatment,0% Never,100% Always,images\ LCHEEK_CFD_AF_245_143_N.png,0,0,0,0,3,7,292,25,,,,,,,,,,,,,,,,,,,,,,,,2023-04-07_19h54.26.794,FaceAttractiveness,2022.2.5,143.92610256877634,
treatment,0% Never,100% Always,images\ LCHEEK_CFD_WF_250_167_N.png,0,0,0,0,3,8,293,36,,,,,,,,,,,,,,,,,,,,,,,,2023-04-07_19h54.26.794,FaceAttractiveness,2022.2.5,143.92610256877634,
treatment,0% Never,100% Always,images\ LCHEEK_CFD_WM_212_097_N.png,0,0,0,0,3,9,294,37,,,,,,,,,,,,,,,,,,,,,,,,2023-04-07_19h54.26.794,FaceAttractiveness,2022.2.5,143.92610256877634,
treatment,0% Never,100% Always,images\FOREHEAD_CFD_LM_201_057_N.png,0,0,0,0,3,10,295,13,,,,,,,,,,,,,,,,,,,,,,,,2023-04-07_19h54.26.794,FaceAttractiveness,2022.2.5,143.92610256877634,
treatment,0% Never,100% Always,images\ LCHEEK_CFD_LF_224_176_N.png,0,0,0,0,3,11,296,31,,,,,,,,,,,,,,,,,,,,,,,,2023-04-07_19h54.26.794,FaceAttractiveness,2022.2.5,143.92610256877634,
treatment,0% Never,100% Always,images\ RCHEEK_CFD_LM_201_057_N.png,0,0,0,0,3,12,297,89,,,,,,,,,,,,,,,,,,,,,,,,2023-04-07_19h54.26.794,FaceAttractiveness,2022.2.5,143.92610256877634,
treatment,0% Never,100% Always,images\ NASALTIP_CFD_LM_203_026_N.png,0,0,0,0,3,13,298,71,,,,,,,,,,,,,,,,,,,,,,,,2023-04-07_19h54.26.794,FaceAttractiveness,2022.2.5,143.92610256877634,
treatment,0% Never,100% Always,images\FOREHEAD_CFD_WM_212_097_N.png,0,0,0,0,3,14,299,18,,,,,,,,,,,,,,,,,,,,,,,,2023-04-07_19h54.26.794,FaceAttractiveness,2022.2.5,143.92610256877634,
treatment,0% Never,100% Always,"images\ NASALTIP_136_M_M_N_A.png
",0,0,0,0,3,15,300,60,,,,,,,,,,,,,,,,,,,,,,,,2023-04-07_19h54.26.794,FaceAttractiveness,2022.2.5,143.92610256877634,
treatment,0% Never,100% Always,"images\ LIP_CFD_WF_002_004_N.png
",0,0,0,0,3,16,301,53,,,,,,,,,,,,,,,,,,,,,,,,2023-04-07_19h54.26.794,FaceAttractiveness,2022.2.5,143.92610256877634,
treatment,0% Never,100% Always,"images\ LIP_CFD_BM_234_172_N.png
",0,0,0,0,3,17,302,49,,,,,,,,,,,,,,,,,,,,,,,,2023-04-07_19h54.26.794,FaceAttractiveness,2022.2.5,143.92610256877634,
treatment,0% Never,100% Always,images\ RCHEEK_CFD_AF_245_143_N.png,0,0,0,0,3,18,303,82,,,,,,,,,,,,,,,,,,,,,,,,2023-04-07_19h54.26.794,FaceAttractiveness,2022.2.5,143.92610256877634,
treatment,0% Never,100% Always,images\ LCHEEK_035_M_F_N_A.png,0,0,0,0,3,19,304,20,,,,,,,,,,,,,,,,,,,,,,,,2023-04-07_19h54.26.794,FaceAttractiveness,2022.2.5,143.92610256877634,
treatment,0% Never,100% Always,images\ RCHEEK_CFD_BF_224_002_N.png,0,0,0,0,3,20,305,85,,,,,,,,,,,,,,,,,,,,,,,,2023-04-07_19h54.26.794,FaceAttractiveness,2022.2.5,143.92610256877634,
treatment,0% Never,100% Always,images\ LIP_CFD_AF_245_143_N.png,0,0,0,0,3,21,306,44,,,,,,,,,,,,,,,,,,,,,,,,2023-04-07_19h54.26.794,FaceAttractiveness,2022.2.5,143.92610256877634,
treatment,0% Never,100% Always,images\ RCHEEK_CFD_LF_224_176_N.png,0,0,0,0,3,22,307,88,,,,,,,,,,,,,,,,,,,,,,,,2023-04-07_19h54.26.794,FaceAttractiveness,2022.2.5,143.92610256877634,
treatment,0% Never,100% Always,images\ LCHEEK_006_M_F_N_A.png,0,0,0,0,3,23,308,19,,,,,,,,,,,,,,,,,,,,,,,,2023-04-07_19h54.26.794,FaceAttractiveness,2022.2.5,143.92610256877634,
treatment,0% Never,100% Always,images\ RCHEEK_CFD_WF_200_099_N.png,0,0,0,0,3,24,309,92,,,,,,,,,,,,,,,,,,,,,,,,2023-04-07_19h54.26.794,FaceAttractiveness,2022.2.5,143.92610256877634,
treatment,0% Never,100% Always,images\ LIP_006_M_F_N_A.png,0,0,0,0,3,25,310,38,,,,,,,,,,,,,,,,,,,,,,,,2023-04-07_19h54.26.794,FaceAttractiveness,2022.2.5,143.92610256877634,
treatment,0% Never,100% Always,images\ RCHEEK_CFD_BF_214_308_N.png,0,0,0,0,3,26,311,84,,,,,,,,,,,,,,,,,,,,,,,,2023-04-07_19h54.26.794,FaceAttractiveness,2022.2.5,143.92610256877634,
treatment,0% Never,100% Always,images\FOREHEAD_006_M_F_N_A.png,0,0,0,0,3,27,312,0,,,,,,,,,,,,,,,,,,,,,,,,2023-04-07_19h54.26.794,FaceAttractiveness,2022.2.5,143.92610256877634,
treatment,0% Never,100% Always,images\ LIP_CFD_BF_224_002_N.png,0,0,0,0,3,28,313,47,,,,,,,,,,,,,,,,,,,,,,,,2023-04-07_19h54.26.794,FaceAttractiveness,2022.2.5,143.92610256877634,
treatment,0% Never,100% Always,images\ LCHEEK_CFD_BM_213_134_N.png,0,0,0,0,3,29,314,29,,,,,,,,,,,,,,,,,,,,,,,,2023-04-07_19h54.26.794,FaceAttractiveness,2022.2.5,143.92610256877634,
treatment,0% Never,100% Always,images\ LIP_CFD_WM_212_097_N.png,0,0,0,0,3,30,315,56,,,,,,,,,,,,,,,,,,,,,,,,2023-04-07_19h54.26.794,FaceAttractiveness,2022.2.5,143.92610256877634,
treatment,0% Never,100% Always,images\ RCHEEK_CFD_WM_212_097_N.png,0,0,0,0,3,31,316,94,,,,,,,,,,,,,,,,,,,,,,,,2023-04-07_19h54.26.794,FaceAttractiveness,2022.2.5,143.92610256877634,
treatment,0% Never,100% Always,"images\ RCHEEK_136_M_M_N_A.png
",0,0,0,0,3,32,317,79,,,,,,,,,,,,,,,,,,,,,,,,2023-04-07_19h54.26.794,FaceAttractiveness,2022.2.5,143.92610256877634,
treatment,0% Never,100% Always,images\ NASALTIP_CFD_BM_213_134_N.png,0,0,0,0,3,33,318,67,,,,,,,,,,,,,,,,,,,,,,,,2023-04-07_19h54.26.794,FaceAttractiveness,2022.2.5,143.92610256877634,
treatment,0% Never,100% Always,images\ NASALTIP_CFD_AF_231_357_N.png,0,0,0,0,3,34,319,61,,,,,,,,,,,,,,,,,,,,,,,,2023-04-07_19h54.26.794,FaceAttractiveness,2022.2.5,143.92610256877634,
treatment,0% Never,100% Always,images\ NASALTIP_CFD_WF_250_167_N.png,0,0,0,0,3,35,320,74,,,,,,,,,,,,,,,,,,,,,,,,2023-04-07_19h54.26.794,FaceAttractiveness,2022.2.5,143.92610256877634,
treatment,0% Never,100% Always,images\ RCHEEK_CFD_LM_203_026_N.png,0,0,0,0,3,36,321,90,,,,,,,,,,,,,,,,,,,,,,,,2023-04-07_19h54.26.794,FaceAttractiveness,2022.2.5,143.92610256877634,
treatment,0% Never,100% Always,images\ NASALTIP_CFD_WM_212_097_N.png,0,0,0,0,3,37,322,75,,,,,,,,,,,,,,,,,,,,,,,,2023-04-07_19h54.26.794,FaceAttractiveness,2022.2.5,143.92610256877634,
treatment,0% Never,100% Always,images\ LCHEEK_CFD_AF_231_357_N.png,0,0,0,0,3,38,323,23,,,,,,,,,,,,,,,,,,,,,,,,2023-04-07_19h54.26.794,FaceAttractiveness,2022.2.5,143.92610256877634,
treatment,0% Never,100% Always,images\ LCHEEK_087_M_M_N_A.png,0,0,0,0,3,39,324,21,,,,,,,,,,,,,,,,,,,,,,,,2023-04-07_19h54.26.794,FaceAttractiveness,2022.2.5,143.92610256877634,
treatment,0% Never,100% Always,images\ NASALTIP_006_M_F_N_A.png,0,0,0,0,3,40,325,57,,,,,,,,,,,,,,,,,,,,,,,,2023-04-07_19h54.26.794,FaceAttractiveness,2022.2.5,143.92610256877634,
treatment,0% Never,100% Always,images\ RCHEEK_006_M_F_N_A.png,0,0,0,0,3,41,326,76,,,,,,,,,,,,,,,,,,,,,,,,2023-04-07_19h54.26.794,FaceAttractiveness,2022.2.5,143.92610256877634,
treatment,0% Never,100% Always,images\ LIP_CFD_BM_213_134_N.png,0,0,0,0,3,42,327,48,,,,,,,,,,,,,,,,,,,,,,,,2023-04-07_19h54.26.794,FaceAttractiveness,2022.2.5,143.92610256877634,
treatment,0% Never,100% Always,"images\ RCHEEK_CFD_AM_233_236_N.png
",0,0,0,0,3,43,328,83,,,,,,,,,,,,,,,,,,,,,,,,2023-04-07_19h54.26.794,FaceAttractiveness,2022.2.5,143.92610256877634,
treatment,0% Never,100% Always,images\ NASALTIP_CFD_WF_200_099_N.png,0,0,0,0,3,44,329,73,,,,,,,,,,,,,,,,,,,,,,,,2023-04-07_19h54.26.794,FaceAttractiveness,2022.2.5,143.92610256877634,
treatment,0% Never,100% Always,images\ NASALTIP_CFD_AF_237_223_N.png,0,0,0,0,3,45,330,62,,,,,,,,,,,,,,,,,,,,,,,,2023-04-07_19h54.26.794,FaceAttractiveness,2022.2.5,143.92610256877634,
treatment,0% Never,100% Always,images\FOREHEAD_CFD_BM_213_134_N.png,0,0,0,0,3,46,331,10,,,,,,,,,,,,,,,,,,,,,,,,2023-04-07_19h54.26.794,FaceAttractiveness,2022.2.5,143.92610256877634,
treatment,0% Never,100% Always,images\FOREHEAD_CFD_WF_002_004_N.png,0,0,0,0,3,47,332,15,,,,,,,,,,,,,,,,,,,,,,,,2023-04-07_19h54.26.794,FaceAttractiveness,2022.2.5,143.92610256877634,
treatment,0% Never,100% Always,images\FOREHEAD_CFD_AF_231_357_N.png,0,0,0,0,3,48,333,4,,,,,,,,,,,,,,,,,,,,,,,,2023-04-07_19h54.26.794,FaceAttractiveness,2022.2.5,143.92610256877634,
treatment,0% Never,100% Always,"images\ LIP_CFD_AM_233_236_N.png
",0,0,0,0,3,49,334,45,,,,,,,,,,,,,,,,,,,,,,,,2023-04-07_19h54.26.794,FaceAttractiveness,2022.2.5,143.92610256877634,
treatment,0% Never,100% Always,images\FOREHEAD_CFD_BF_214_308_N.png,0,0,0,0,3,50,335,8,,,,,,,,,,,,,,,,,,,,,,,,2023-04-07_19h54.26.794,FaceAttractiveness,2022.2.5,143.92610256877634,
treatment,0% Never,100% Always,images\FOREHEAD_CFD_BM_234_172_N.png,0,0,0,0,3,51,336,11,,,,,,,,,,,,,,,,,,,,,,,,2023-04-07_19h54.26.794,FaceAttractiveness,2022.2.5,143.92610256877634,
treatment,0% Never,100% Always,images\ NASALTIP_CFD_LF_224_176_N.png,0,0,0,0,3,52,337,69,,,,,,,,,,,,,,,,,,,,,,,,2023-04-07_19h54.26.794,FaceAttractiveness,2022.2.5,143.92610256877634,
treatment,0% Never,100% Always,images\FOREHEAD_CFD_AF_237_223_N.png,0,0,0,0,3,53,338,5,,,,,,,,,,,,,,,,,,,,,,,,2023-04-07_19h54.26.794,FaceAttractiveness,2022.2.5,143.92610256877634,
treatment,0% Never,100% Always,images\ LCHEEK_CFD_LM_201_057_N.png,0,0,0,0,3,54,339,32,,,,,,,,,,,,,,,,,,,,,,,,2023-04-07_19h54.26.794,FaceAttractiveness,2022.2.5,143.92610256877634,
treatment,0% Never,100% Always,images\FOREHEAD_087_M_M_N_A.png,0,0,0,0,3,55,340,2,,,,,,,,,,,,,,,,,,,,,,,,2023-04-07_19h54.26.794,FaceAttractiveness,2022.2.5,143.92610256877634,
treatment,0% Never,100% Always,"images\ NASALTIP_CFD_AM_233_236_N.png
",0,0,0,0,3,56,341,64,,,,,,,,,,,,,,,,,,,,,,,,2023-04-07_19h54.26.794,FaceAttractiveness,2022.2.5,143.92610256877634,
treatment,0% Never,100% Always,images\FOREHEAD_CFD_LM_203_026_N.png,0,0,0,0,3,57,342,14,,,,,,,,,,,,,,,,,,,,,,,,2023-04-07_19h54.26.794,FaceAttractiveness,2022.2.5,143.92610256877634,
treatment,0% Never,100% Always,images\FOREHEAD_136_M_M_N_A.png,0,0,0,0,3,58,343,3,,,,,,,,,,,,,,,,,,,,,,,,2023-04-07_19h54.26.794,FaceAttractiveness,2022.2.5,143.92610256877634,
treatment,0% Never,100% Always,"images\ LCHEEK_136_M_M_N_A.png
",0,0,0,0,3,59,344,22,,,,,,,,,,,,,,,,,,,,,,,,2023-04-07_19h54.26.794,FaceAttractiveness,2022.2.5,143.92610256877634,
treatment,0% Never,100% Always,images\ NASALTIP_CFD_BF_214_308_N.png,0,0,0,0,3,60,345,65,,,,,,,,,,,,,,,,,,,,,,,,2023-04-07_19h54.26.794,FaceAttractiveness,2022.2.5,143.92610256877634,
treatment,0% Never,100% Always,images\ RCHEEK_087_M_M_N_A.png,0,0,0,0,3,61,346,78,,,,,,,,,,,,,,,,,,,,,,,,2023-04-07_19h54.26.794,FaceAttractiveness,2022.2.5,143.92610256877634,
treatment,0% Never,100% Always,images\ LIP_CFD_WF_250_167_N.png,0,0,0,0,3,62,347,55,,,,,,,,,,,,,,,,,,,,,,,,2023-04-07_19h54.26.794,FaceAttractiveness,2022.2.5,143.92610256877634,
treatment,0% Never,100% Always,images\ NASALTIP_CFD_AF_245_143_N.png,0,0,0,0,3,63,348,63,,,,,,,,,,,,,,,,,,,,,,,,2023-04-07_19h54.26.794,FaceAttractiveness,2022.2.5,143.92610256877634,
treatment,0% Never,100% Always,images\ LIP_CFD_AF_237_223_N.png,0,0,0,0,3,64,349,43,,,,,,,,,,,,,,,,,,,,,,,,2023-04-07_19h54.26.794,FaceAttractiveness,2022.2.5,143.92610256877634,
treatment,0% Never,100% Always,images\ RCHEEK_CFD_WF_250_167_N.png,0,0,0,0,3,65,350,93,,,,,,,,,,,,,,,,,,,,,,,,2023-04-07_19h54.26.794,FaceAttractiveness,2022.2.5,143.92610256877634,
treatment,0% Never,100% Always,"images\ LIP_136_M_M_N_A.png
",0,0,0,0,3,66,351,41,,,,,,,,,,,,,,,,,,,,,,,,2023-04-07_19h54.26.794,FaceAttractiveness,2022.2.5,143.92610256877634,
treatment,0% Never,100% Always,images\ NASALTIP_035_M_F_N_A.png,0,0,0,0,3,67,352,58,,,,,,,,,,,,,,,,,,,,,,,,2023-04-07_19h54.26.794,FaceAttractiveness,2022.2.5,143.92610256877634,
treatment,0% Never,100% Always,images\ LIP_CFD_WF_200_099_N.png,0,0,0,0,3,68,353,54,,,,,,,,,,,,,,,,,,,,,,,,2023-04-07_19h54.26.794,FaceAttractiveness,2022.2.5,143.92610256877634,
treatment,0% Never,100% Always,images\ NASALTIP_CFD_LM_201_057_N.png,0,0,0,0,3,69,354,70,,,,,,,,,,,,,,,,,,,,,,,,2023-04-07_19h54.26.794,FaceAttractiveness,2022.2.5,143.92610256877634,
treatment,0% Never,100% Always,"images\ RCHEEK_CFD_BM_234_172_N.png
",0,0,0,0,3,70,355,87,,,,,,,,,,,,,,,,,,,,,,,,2023-04-07_19h54.26.794,FaceAttractiveness,2022.2.5,143.92610256877634,
treatment,0% Never,100% Always,images\FOREHEAD_CFD_WF_250_167_N.png,0,0,0,0,3,71,356,17,,,,,,,,,,,,,,,,,,,,,,,,2023-04-07_19h54.26.794,FaceAttractiveness,2022.2.5,143.92610256877634,
treatment,0% Never,100% Always,images\ LIP_035_M_F_N_A.png,0,0,0,0,3,72,357,39,,,,,,,,,,,,,,,,,,,,,,,,2023-04-07_19h54.26.794,FaceAttractiveness,2022.2.5,143.92610256877634,
treatment,0% Never,100% Always,images\ LCHEEK_CFD_BF_214_308_N.png,0,0,0,0,3,73,358,27,,,,,,,,,,,,,,,,,,,,,,,,2023-04-07_19h54.26.794,FaceAttractiveness,2022.2.5,143.92610256877634,
treatment,0% Never,100% Always,"images\ LCHEEK_CFD_AM_233_236_N.png
",0,0,0,0,3,74,359,26,,,,,,,,,,,,,,,,,,,,,,,,2023-04-07_19h54.26.794,FaceAttractiveness,2022.2.5,143.92610256877634,
treatment,0% Never,100% Always,images\ LCHEEK_CFD_AF_237_223_N.png,0,0,0,0,3,75,360,24,,,,,,,,,,,,,,,,,,,,,,,,2023-04-07_19h54.26.794,FaceAttractiveness,2022.2.5,143.92610256877634,
treatment,0% Never,100% Always,images\ LIP_CFD_BF_214_308_N.png,0,0,0,0,3,76,361,46,,,,,,,,,,,,,,,,,,,,,,,,2023-04-07_19h54.26.794,FaceAttractiveness,2022.2.5,143.92610256877634,
treatment,0% Never,100% Always,images\ NASALTIP_087_M_M_N_A.png,0,0,0,0,3,77,362,59,,,,,,,,,,,,,,,,,,,,,,,,2023-04-07_19h54.26.794,FaceAttractiveness,2022.2.5,143.92610256877634,
treatment,0% Never,100% Always,images\FOREHEAD_CFD_AF_245_143_N.png,0,0,0,0,3,78,363,6,,,,,,,,,,,,,,,,,,,,,,,,2023-04-07_19h54.26.794,FaceAttractiveness,2022.2.5,143.92610256877634,
treatment,0% Never,100% Always,images\ LIP_CFD_LF_224_176_N.png,0,0,0,0,3,79,364,50,,,,,,,,,,,,,,,,,,,,,,,,2023-04-07_19h54.26.794,FaceAttractiveness,2022.2.5,143.92610256877634,
treatment,0% Never,100% Always,images\ RCHEEK_035_M_F_N_A.png,0,0,0,0,3,80,365,77,,,,,,,,,,,,,,,,,,,,,,,,2023-04-07_19h54.26.794,FaceAttractiveness,2022.2.5,143.92610256877634,
treatment,0% Never,100% Always,"images\ NASALTIP_CFD_WF_002_004_N.png
",0,0,0,0,3,81,366,72,,,,,,,,,,,,,,,,,,,,,,,,2023-04-07_19h54.26.794,FaceAttractiveness,2022.2.5,143.92610256877634,
treatment,0% Never,100% Always,images\ LCHEEK_CFD_WF_200_099_N.png,0,0,0,0,3,82,367,35,,,,,,,,,,,,,,,,,,,,,,,,2023-04-07_19h54.26.794,FaceAttractiveness,2022.2.5,143.92610256877634,
treatment,0% Never,100% Always,images\FOREHEAD_CFD_WF_200_099_N.png,0,0,0,0,3,83,368,16,,,,,,,,,,,,,,,,,,,,,,,,2023-04-07_19h54.26.794,FaceAttractiveness,2022.2.5,143.92610256877634,
treatment,0% Never,100% Always,images\ RCHEEK_CFD_BM_213_134_N.png,0,0,0,0,3,84,369,86,,,,,,,,,,,,,,,,,,,,,,,,2023-04-07_19h54.26.794,FaceAttractiveness,2022.2.5,143.92610256877634,
treatment,0% Never,100% Always,"images\ LCHEEK_CFD_WF_002_004_N.png
",0,0,0,0,3,85,370,34,,,,,,,,,,,,,,,,,,,,,,,,2023-04-07_19h54.26.794,FaceAttractiveness,2022.2.5,143.92610256877634,
treatment,0% Never,100% Always,images\ LIP_087_M_M_N_A.png,0,0,0,0,3,86,371,40,,,,,,,,,,,,,,,,,,,,,,,,2023-04-07_19h54.26.794,FaceAttractiveness,2022.2.5,143.92610256877634,
treatment,0% Never,100% Always,images\FOREHEAD_035_M_F_N_A.png,0,0,0,0,3,87,372,1,,,,,,,,,,,,,,,,,,,,,,,,2023-04-07_19h54.26.794,FaceAttractiveness,2022.2.5,143.92610256877634,
treatment,0% Never,100% Always,"images\ LCHEEK_CFD_BM_234_172_N.png
",0,0,0,0,3,88,373,30,,,,,,,,,,,,,,,,,,,,,,,,2023-04-07_19h54.26.794,FaceAttractiveness,2022.2.5,143.92610256877634,
treatment,0% Never,100% Always,"images\ RCHEEK_CFD_WF_002_004_N.png
",0,0,0,0,3,89,374,91,,,,,,,,,,,,,,,,,,,,,,,,2023-04-07_19h54.26.794,FaceAttractiveness,2022.2.5,143.92610256877634,
treatment,0% Never,100% Always,images\ LIP_CFD_LM_203_026_N.png,0,0,0,0,3,90,375,52,,,,,,,,,,,,,,,,,,,,,,,,2023-04-07_19h54.26.794,FaceAttractiveness,2022.2.5,143.92610256877634,
treatment,0% Never,100% Always,images\ RCHEEK_CFD_AF_231_357_N.png,0,0,0,0,3,91,376,80,,,,,,,,,,,,,,,,,,,,,,,,2023-04-07_19h54.26.794,FaceAttractiveness,2022.2.5,143.92610256877634,
treatment,0% Never,100% Always,images\FOREHEAD_CFD_BF_224_002_N.png,0,0,0,0,3,92,377,9,,,,,,,,,,,,,,,,,,,,,,,,2023-04-07_19h54.26.794,FaceAttractiveness,2022.2.5,143.92610256877634,
treatment,0% Never,100% Always,"images\ NASALTIP_CFD_BM_234_172_N.png
",0,0,0,0,3,93,378,68,,,,,,,,,,,,,,,,,,,,,,,,2023-04-07_19h54.26.794,FaceAttractiveness,2022.2.5,143.92610256877634,
treatment,0% Never,100% Always,images\ LIP_CFD_AF_231_357_N.png,0,0,0,0,3,94,379,42,,,,,,,,,,,,,,,,,,,,,,,,2023-04-07_19h54.26.794,FaceAttractiveness,2022.2.5,143.92610256877634,
treatment,0% Never,100% Always,"images\ LIP_CFD_AM_233_236_N.png
",0,0,0,0,4,0,380,45,,,,,,,,,,,,,,,,,,,,,,,,2023-04-07_19h54.26.794,FaceAttractiveness,2022.2.5,143.92610256877634,
treatment,0% Never,100% Always,images\ NASALTIP_CFD_WF_250_167_N.png,0,0,0,0,4,1,381,74,,,,,,,,,,,,,,,,,,,,,,,,2023-04-07_19h54.26.794,FaceAttractiveness,2022.2.5,143.92610256877634,
treatment,0% Never,100% Always,images\ NASALTIP_CFD_LM_203_026_N.png,0,0,0,0,4,2,382,71,,,,,,,,,,,,,,,,,,,,,,,,2023-04-07_19h54.26.794,FaceAttractiveness,2022.2.5,143.92610256877634,
treatment,0% Never,100% Always,images\FOREHEAD_006_M_F_N_A.png,0,0,0,0,4,3,383,0,,,,,,,,,,,,,,,,,,,,,,,,2023-04-07_19h54.26.794,FaceAttractiveness,2022.2.5,143.92610256877634,
treatment,0% Never,100% Always,images\ NASALTIP_CFD_BF_214_308_N.png,0,0,0,0,4,4,384,65,,,,,,,,,,,,,,,,,,,,,,,,2023-04-07_19h54.26.794,FaceAttractiveness,2022.2.5,143.92610256877634,
treatment,0% Never,100% Always,images\FOREHEAD_CFD_AF_237_223_N.png,0,0,0,0,4,5,385,5,,,,,,,,,,,,,,,,,,,,,,,,2023-04-07_19h54.26.794,FaceAttractiveness,2022.2.5,143.92610256877634,
treatment,0% Never,100% Always,images\ LCHEEK_CFD_WM_212_097_N.png,0,0,0,0,4,6,386,37,,,,,,,,,,,,,,,,,,,,,,,,2023-04-07_19h54.26.794,FaceAttractiveness,2022.2.5,143.92610256877634,
treatment,0% Never,100% Always,"images\ RCHEEK_CFD_BM_234_172_N.png
",0,0,0,0,4,7,387,87,,,,,,,,,,,,,,,,,,,,,,,,2023-04-07_19h54.26.794,FaceAttractiveness,2022.2.5,143.92610256877634,
treatment,0% Never,100% Always,images\ RCHEEK_087_M_M_N_A.png,0,0,0,0,4,8,388,78,,,,,,,,,,,,,,,,,,,,,,,,2023-04-07_19h54.26.794,FaceAttractiveness,2022.2.5,143.92610256877634,
treatment,0% Never,100% Always,images\FOREHEAD_CFD_LM_203_026_N.png,0,0,0,0,4,9,389,14,,,,,,,,,,,,,,,,,,,,,,,,2023-04-07_19h54.26.794,FaceAttractiveness,2022.2.5,143.92610256877634,
treatment,0% Never,100% Always,"images\ NASALTIP_CFD_AM_233_236_N.png
",0,0,0,0,4,10,390,64,,,,,,,,,,,,,,,,,,,,,,,,2023-04-07_19h54.26.794,FaceAttractiveness,2022.2.5,143.92610256877634,
treatment,0% Never,100% Always,images\ RCHEEK_CFD_BM_213_134_N.png,0,0,0,0,4,11,391,86,,,,,,,,,,,,,,,,,,,,,,,,2023-04-07_19h54.26.794,FaceAttractiveness,2022.2.5,143.92610256877634,
treatment,0% Never,100% Always,images\ RCHEEK_CFD_WF_200_099_N.png,0,0,0,0,4,12,392,92,,,,,,,,,,,,,,,,,,,,,,,,2023-04-07_19h54.26.794,FaceAttractiveness,2022.2.5,143.92610256877634,
treatment,0% Never,100% Always,images\ RCHEEK_CFD_BF_214_308_N.png,0,0,0,0,4,13,393,84,,,,,,,,,,,,,,,,,,,,,,,,2023-04-07_19h54.26.794,FaceAttractiveness,2022.2.5,143.92610256877634,
treatment,0% Never,100% Always,images\ NASALTIP_CFD_LF_224_176_N.png,0,0,0,0,4,14,394,69,,,,,,,,,,,,,,,,,,,,,,,,2023-04-07_19h54.26.794,FaceAttractiveness,2022.2.5,143.92610256877634,
treatment,0% Never,100% Always,images\ NASALTIP_035_M_F_N_A.png,0,0,0,0,4,15,395,58,,,,,,,,,,,,,,,,,,,,,,,,2023-04-07_19h54.26.794,FaceAttractiveness,2022.2.5,143.92610256877634,
treatment,0% Never,100% Always,images\ RCHEEK_CFD_WF_250_167_N.png,0,0,0,0,4,16,396,93,,,,,,,,,,,,,,,,,,,,,,,,2023-04-07_19h54.26.794,FaceAttractiveness,2022.2.5,143.92610256877634,
treatment,0% Never,100% Always,images\ LIP_CFD_BF_214_308_N.png,0,0,0,0,4,17,397,46,,,,,,,,,,,,,,,,,,,,,,,,2023-04-07_19h54.26.794,FaceAttractiveness,2022.2.5,143.92610256877634,
treatment,0% Never,100% Always,images\ LIP_CFD_AF_231_357_N.png,0,0,0,0,4,18,398,42,,,,,,,,,,,,,,,,,,,,,,,,2023-04-07_19h54.26.794,FaceAttractiveness,2022.2.5,143.92610256877634,
treatment,0% Never,100% Always,images\ RCHEEK_CFD_LM_203_026_N.png,0,0,0,0,4,19,399,90,,,,,,,,,,,,,,,,,,,,,,,,2023-04-07_19h54.26.794,FaceAttractiveness,2022.2.5,143.92610256877634,
treatment,0% Never,100% Always,images\ NASALTIP_CFD_LM_201_057_N.png,0,0,0,0,4,20,400,70,,,,,,,,,,,,,,,,,,,,,,,,2023-04-07_19h54.26.794,FaceAttractiveness,2022.2.5,143.92610256877634,
treatment,0% Never,100% Always,images\ LIP_CFD_WF_250_167_N.png,0,0,0,0,4,21,401,55,,,,,,,,,,,,,,,,,,,,,,,,2023-04-07_19h54.26.794,FaceAttractiveness,2022.2.5,143.92610256877634,
treatment,0% Never,100% Always,images\FOREHEAD_CFD_WM_212_097_N.png,0,0,0,0,4,22,402,18,,,,,,,,,,,,,,,,,,,,,,,,2023-04-07_19h54.26.794,FaceAttractiveness,2022.2.5,143.92610256877634,
treatment,0% Never,100% Always,images\ RCHEEK_CFD_AF_231_357_N.png,0,0,0,0,4,23,403,80,,,,,,,,,,,,,,,,,,,,,,,,2023-04-07_19h54.26.794,FaceAttractiveness,2022.2.5,143.92610256877634,
treatment,0% Never,100% Always,images\ RCHEEK_CFD_LF_224_176_N.png,0,0,0,0,4,24,404,88,,,,,,,,,,,,,,,,,,,,,,,,2023-04-07_19h54.26.794,FaceAttractiveness,2022.2.5,143.92610256877634,
treatment,0% Never,100% Always,images\ LIP_CFD_AF_245_143_N.png,0,0,0,0,4,25,405,44,,,,,,,,,,,,,,,,,,,,,,,,2023-04-07_19h54.26.794,FaceAttractiveness,2022.2.5,143.92610256877634,
treatment,0% Never,100% Always,images\ RCHEEK_CFD_LM_201_057_N.png,0,0,0,0,4,26,406,89,,,,,,,,,,,,,,,,,,,,,,,,2023-04-07_19h54.26.794,FaceAttractiveness,2022.2.5,143.92610256877634,
treatment,0% Never,100% Always,images\FOREHEAD_CFD_AM_233_236_N.png,0,0,0,0,4,27,407,7,,,,,,,,,,,,,,,,,,,,,,,,2023-04-07_19h54.26.794,FaceAttractiveness,2022.2.5,143.92610256877634,
treatment,0% Never,100% Always,images\ LCHEEK_CFD_BF_214_308_N.png,0,0,0,0,4,28,408,27,,,,,,,,,,,,,,,,,,,,,,,,2023-04-07_19h54.26.794,FaceAttractiveness,2022.2.5,143.92610256877634,
treatment,0% Never,100% Always,"images\ LCHEEK_CFD_AM_233_236_N.png
",0,0,0,0,4,29,409,26,,,,,,,,,,,,,,,,,,,,,,,,2023-04-07_19h54.26.794,FaceAttractiveness,2022.2.5,143.92610256877634,
treatment,0% Never,100% Always,images\ LCHEEK_CFD_WF_250_167_N.png,0,0,0,0,4,30,410,36,,,,,,,,,,,,,,,,,,,,,,,,2023-04-07_19h54.26.794,FaceAttractiveness,2022.2.5,143.92610256877634,
treatment,0% Never,100% Always,images\FOREHEAD_087_M_M_N_A.png,0,0,0,0,4,31,411,2,,,,,,,,,,,,,,,,,,,,,,,,2023-04-07_19h54.26.794,FaceAttractiveness,2022.2.5,143.92610256877634,
treatment,0% Never,100% Always,"images\ NASALTIP_CFD_BM_234_172_N.png
",0,0,0,0,4,32,412,68,,,,,,,,,,,,,,,,,,,,,,,,2023-04-07_19h54.26.794,FaceAttractiveness,2022.2.5,143.92610256877634,
treatment,0% Never,100% Always,images\FOREHEAD_CFD_BM_213_134_N.png,0,0,0,0,4,33,413,10,,,,,,,,,,,,,,,,,,,,,,,,2023-04-07_19h54.26.794,FaceAttractiveness,2022.2.5,143.92610256877634,
treatment,0% Never,100% Always,images\ LCHEEK_CFD_WF_200_099_N.png,0,0,0,0,4,34,414,35,,,,,,,,,,,,,,,,,,,,,,,,2023-04-07_19h54.26.794,FaceAttractiveness,2022.2.5,143.92610256877634,
treatment,0% Never,100% Always,images\ LCHEEK_CFD_LF_224_176_N.png,0,0,0,0,4,35,415,31,,,,,,,,,,,,,,,,,,,,,,,,2023-04-07_19h54.26.794,FaceAttractiveness,2022.2.5,143.92610256877634,
treatment,0% Never,100% Always,images\FOREHEAD_CFD_BM_234_172_N.png,0,0,0,0,4,36,416,11,,,,,,,,,,,,,,,,,,,,,,,,2023-04-07_19h54.26.794,FaceAttractiveness,2022.2.5,143.92610256877634,
treatment,0% Never,100% Always,images\ RCHEEK_CFD_AF_245_143_N.png,0,0,0,0,4,37,417,82,,,,,,,,,,,,,,,,,,,,,,,,2023-04-07_19h54.26.794,FaceAttractiveness,2022.2.5,143.92610256877634,
treatment,0% Never,100% Always,"images\ RCHEEK_136_M_M_N_A.png
",0,0,0,0,4,38,418,79,,,,,,,,,,,,,,,,,,,,,,,,2023-04-07_19h54.26.794,FaceAttractiveness,2022.2.5,143.92610256877634,
treatment,0% Never,100% Always,"images\ LIP_CFD_BM_234_172_N.png
",0,0,0,0,4,39,419,49,,,,,,,,,,,,,,,,,,,,,,,,2023-04-07_19h54.26.794,FaceAttractiveness,2022.2.5,143.92610256877634,
treatment,0% Never,100% Always,"images\ LCHEEK_CFD_WF_002_004_N.png
",0,0,0,0,4,40,420,34,,,,,,,,,,,,,,,,,,,,,,,,2023-04-07_19h54.26.794,FaceAttractiveness,2022.2.5,143.92610256877634,
treatment,0% Never,100% Always,images\ RCHEEK_CFD_WM_212_097_N.png,0,0,0,0,4,41,421,94,,,,,,,,,,,,,,,,,,,,,,,,2023-04-07_19h54.26.794,FaceAttractiveness,2022.2.5,143.92610256877634,
treatment,0% Never,100% Always,images\FOREHEAD_035_M_F_N_A.png,0,0,0,0,4,42,422,1,,,,,,,,,,,,,,,,,,,,,,,,2023-04-07_19h54.26.794,FaceAttractiveness,2022.2.5,143.92610256877634,
treatment,0% Never,100% Always,images\FOREHEAD_136_M_M_N_A.png,0,0,0,0,4,43,423,3,,,,,,,,,,,,,,,,,,,,,,,,2023-04-07_19h54.26.794,FaceAttractiveness,2022.2.5,143.92610256877634,
treatment,0% Never,100% Always,images\ NASALTIP_CFD_WF_200_099_N.png,0,0,0,0,4,44,424,73,,,,,,,,,,,,,,,,,,,,,,,,2023-04-07_19h54.26.794,FaceAttractiveness,2022.2.5,143.92610256877634,
treatment,0% Never,100% Always,images\ RCHEEK_CFD_BF_224_002_N.png,0,0,0,0,4,45,425,85,,,,,,,,,,,,,,,,,,,,,,,,2023-04-07_19h54.26.794,FaceAttractiveness,2022.2.5,143.92610256877634,
treatment,0% Never,100% Always,images\ NASALTIP_CFD_BF_224_002_N.png,0,0,0,0,4,46,426,66,,,,,,,,,,,,,,,,,,,,,,,,2023-04-07_19h54.26.794,FaceAttractiveness,2022.2.5,143.92610256877634,
treatment,0% Never,100% Always,"images\ LIP_CFD_WF_002_004_N.png
",0,0,0,0,4,47,427,53,,,,,,,,,,,,,,,,,,,,,,,,2023-04-07_19h54.26.794,FaceAttractiveness,2022.2.5,143.92610256877634,
treatment,0% Never,100% Always,"images\ RCHEEK_CFD_AM_233_236_N.png
",0,0,0,0,4,48,428,83,,,,,,,,,,,,,,,,,,,,,,,,2023-04-07_19h54.26.794,FaceAttractiveness,2022.2.5,143.92610256877634,
treatment,0% Never,100% Always,images\FOREHEAD_CFD_AF_231_357_N.png,0,0,0,0,4,49,429,4,,,,,,,,,,,,,,,,,,,,,,,,2023-04-07_19h54.26.794,FaceAttractiveness,2022.2.5,143.92610256877634,
treatment,0% Never,100% Always,images\ LIP_CFD_LM_203_026_N.png,0,0,0,0,4,50,430,52,,,,,,,,,,,,,,,,,,,,,,,,2023-04-07_19h54.26.794,FaceAttractiveness,2022.2.5,143.92610256877634,
treatment,0% Never,100% Always,images\ NASALTIP_CFD_BM_213_134_N.png,0,0,0,0,4,51,431,67,,,,,,,,,,,,,,,,,,,,,,,,2023-04-07_19h54.26.794,FaceAttractiveness,2022.2.5,143.92610256877634,
treatment,0% Never,100% Always,images\ LCHEEK_CFD_LM_203_026_N.png,0,0,0,0,4,52,432,33,,,,,,,,,,,,,,,,,,,,,,,,2023-04-07_19h54.26.794,FaceAttractiveness,2022.2.5,143.92610256877634,
treatment,0% Never,100% Always,"images\ NASALTIP_136_M_M_N_A.png
",0,0,0,0,4,53,433,60,,,,,,,,,,,,,,,,,,,,,,,,2023-04-07_19h54.26.794,FaceAttractiveness,2022.2.5,143.92610256877634,
treatment,0% Never,100% Always,images\ LIP_CFD_BM_213_134_N.png,0,0,0,0,4,54,434,48,,,,,,,,,,,,,,,,,,,,,,,,2023-04-07_19h54.26.794,FaceAttractiveness,2022.2.5,143.92610256877634,
treatment,0% Never,100% Always,images\FOREHEAD_CFD_BF_224_002_N.png,0,0,0,0,4,55,435,9,,,,,,,,,,,,,,,,,,,,,,,,2023-04-07_19h54.26.794,FaceAttractiveness,2022.2.5,143.92610256877634,
treatment,0% Never,100% Always,images\ NASALTIP_CFD_AF_245_143_N.png,0,0,0,0,4,56,436,63,,,,,,,,,,,,,,,,,,,,,,,,2023-04-07_19h54.26.794,FaceAttractiveness,2022.2.5,143.92610256877634,
treatment,0% Never,100% Always,images\ RCHEEK_CFD_AF_237_223_N.png,0,0,0,0,4,57,437,81,,,,,,,,,,,,,,,,,,,,,,,,2023-04-07_19h54.26.794,FaceAttractiveness,2022.2.5,143.92610256877634,
treatment,0% Never,100% Always,images\FOREHEAD_CFD_AF_245_143_N.png,0,0,0,0,4,58,438,6,,,,,,,,,,,,,,,,,,,,,,,,2023-04-07_19h54.26.794,FaceAttractiveness,2022.2.5,143.92610256877634,
treatment,0% Never,100% Always,images\ RCHEEK_035_M_F_N_A.png,0,0,0,0,4,59,439,77,,,,,,,,,,,,,,,,,,,,,,,,2023-04-07_19h54.26.794,FaceAttractiveness,2022.2.5,143.92610256877634,
treatment,0% Never,100% Always,"images\ LCHEEK_CFD_BM_234_172_N.png
",0,0,0,0,4,60,440,30,,,,,,,,,,,,,,,,,,,,,,,,2023-04-07_19h54.26.794,FaceAttractiveness,2022.2.5,143.92610256877634,
treatment,0% Never,100% Always,images\ LCHEEK_CFD_AF_231_357_N.png,0,0,0,0,4,61,441,23,,,,,,,,,,,,,,,,,,,,,,,,2023-04-07_19h54.26.794,FaceAttractiveness,2022.2.5,143.92610256877634,
treatment,0% Never,100% Always,images\ LIP_006_M_F_N_A.png,0,0,0,0,4,62,442,38,,,,,,,,,,,,,,,,,,,,,,,,2023-04-07_19h54.26.794,FaceAttractiveness,2022.2.5,143.92610256877634,
treatment,0% Never,100% Always,images\ LIP_087_M_M_N_A.png,0,0,0,0,4,63,443,40,,,,,,,,,,,,,,,,,,,,,,,,2023-04-07_19h54.26.794,FaceAttractiveness,2022.2.5,143.92610256877634,
treatment,0% Never,100% Always,images\ LIP_CFD_WM_212_097_N.png,0,0,0,0,4,64,444,56,,,,,,,,,,,,,,,,,,,,,,,,2023-04-07_19h54.26.794,FaceAttractiveness,2022.2.5,143.92610256877634,
treatment,0% Never,100% Always,images\ NASALTIP_CFD_AF_231_357_N.png,0,0,0,0,4,65,445,61,,,,,,,,,,,,,,,,,,,,,,,,2023-04-07_19h54.26.794,FaceAttractiveness,2022.2.5,143.92610256877634,
treatment,0% Never,100% Always,images\ LCHEEK_006_M_F_N_A.png,0,0,0,0,4,66,446,19,,,,,,,,,,,,,,,,,,,,,,,,2023-04-07_19h54.26.794,FaceAttractiveness,2022.2.5,143.92610256877634,
treatment,0% Never,100% Always,images\ LIP_035_M_F_N_A.png,0,0,0,0,4,67,447,39,,,,,,,,,,,,,,,,,,,,,,,,2023-04-07_19h54.26.794,FaceAttractiveness,2022.2.5,143.92610256877634,
treatment,0% Never,100% Always,images\ LCHEEK_CFD_AF_245_143_N.png,0,0,0,0,4,68,448,25,,,,,,,,,,,,,,,,,,,,,,,,2023-04-07_19h54.26.794,FaceAttractiveness,2022.2.5,143.92610256877634,
treatment,0% Never,100% Always,images\ NASALTIP_CFD_AF_237_223_N.png,0,0,0,0,4,69,449,62,,,,,,,,,,,,,,,,,,,,,,,,2023-04-07_19h54.26.794,FaceAttractiveness,2022.2.5,143.92610256877634,
treatment,0% Never,100% Always,"images\ LIP_136_M_M_N_A.png
",0,0,0,0,4,70,450,41,,,,,,,,,,,,,,,,,,,,,,,,2023-04-07_19h54.26.794,FaceAttractiveness,2022.2.5,143.92610256877634,
treatment,0% Never,100% Always,images\FOREHEAD_CFD_LM_201_057_N.png,0,0,0,0,4,71,451,13,,,,,,,,,,,,,,,,,,,,,,,,2023-04-07_19h54.26.794,FaceAttractiveness,2022.2.5,143.92610256877634,
treatment,0% Never,100% Always,images\ NASALTIP_CFD_WM_212_097_N.png,0,0,0,0,4,72,452,75,,,,,,,,,,,,,,,,,,,,,,,,2023-04-07_19h54.26.794,FaceAttractiveness,2022.2.5,143.92610256877634,
treatment,0% Never,100% Always,images\ LCHEEK_CFD_BM_213_134_N.png,0,0,0,0,4,73,453,29,,,,,,,,,,,,,,,,,,,,,,,,2023-04-07_19h54.26.794,FaceAttractiveness,2022.2.5,143.92610256877634,
treatment,0% Never,100% Always,"images\ NASALTIP_CFD_WF_002_004_N.png
",0,0,0,0,4,74,454,72,,,,,,,,,,,,,,,,,,,,,,,,2023-04-07_19h54.26.794,FaceAttractiveness,2022.2.5,143.92610256877634,
treatment,0% Never,100% Always,images\FOREHEAD_CFD_WF_200_099_N.png,0,0,0,0,4,75,455,16,,,,,,,,,,,,,,,,,,,,,,,,2023-04-07_19h54.26.794,FaceAttractiveness,2022.2.5,143.92610256877634,
treatment,0% Never,100% Always,images\ NASALTIP_087_M_M_N_A.png,0,0,0,0,4,76,456,59,,,,,,,,,,,,,,,,,,,,,,,,2023-04-07_19h54.26.794,FaceAttractiveness,2022.2.5,143.92610256877634,
treatment,0% Never,100% Always,images\ NASALTIP_006_M_F_N_A.png,0,0,0,0,4,77,457,57,,,,,,,,,,,,,,,,,,,,,,,,2023-04-07_19h54.26.794,FaceAttractiveness,2022.2.5,143.92610256877634,
treatment,0% Never,100% Always,images\FOREHEAD_CFD_WF_002_004_N.png,0,0,0,0,4,78,458,15,,,,,,,,,,,,,,,,,,,,,,,,2023-04-07_19h54.26.794,FaceAttractiveness,2022.2.5,143.92610256877634,
treatment,0% Never,100% Always,images\FOREHEAD_CFD_WF_250_167_N.png,0,0,0,0,4,79,459,17,,,,,,,,,,,,,,,,,,,,,,,,2023-04-07_19h54.26.794,FaceAttractiveness,2022.2.5,143.92610256877634,
treatment,0% Never,100% Always,images\ RCHEEK_006_M_F_N_A.png,0,0,0,0,4,80,460,76,,,,,,,,,,,,,,,,,,,,,,,,2023-04-07_19h54.26.794,FaceAttractiveness,2022.2.5,143.92610256877634,
treatment,0% Never,100% Always,images\FOREHEAD_CFD_LF_224_176_N.png,0,0,0,0,4,81,461,12,,,,,,,,,,,,,,,,,,,,,,,,2023-04-07_19h54.26.794,FaceAttractiveness,2022.2.5,143.92610256877634,
treatment,0% Never,100% Always,images\ LCHEEK_CFD_LM_201_057_N.png,0,0,0,0,4,82,462,32,,,,,,,,,,,,,,,,,,,,,,,,2023-04-07_19h54.26.794,FaceAttractiveness,2022.2.5,143.92610256877634,
treatment,0% Never,100% Always,images\ LCHEEK_035_M_F_N_A.png,0,0,0,0,4,83,463,20,,,,,,,,,,,,,,,,,,,,,,,,2023-04-07_19h54.26.794,FaceAttractiveness,2022.2.5,143.92610256877634,
treatment,0% Never,100% Always,images\ LIP_CFD_AF_237_223_N.png,0,0,0,0,4,84,464,43,,,,,,,,,,,,,,,,,,,,,,,,2023-04-07_19h54.26.794,FaceAttractiveness,2022.2.5,143.92610256877634,
treatment,0% Never,100% Always,"images\ RCHEEK_CFD_WF_002_004_N.png
",0,0,0,0,4,85,465,91,,,,,,,,,,,,,,,,,,,,,,,,2023-04-07_19h54.26.794,FaceAttractiveness,2022.2.5,143.92610256877634,
treatment,0% Never,100% Always,images\FOREHEAD_CFD_BF_214_308_N.png,0,0,0,0,4,86,466,8,,,,,,,,,,,,,,,,,,,,,,,,2023-04-07_19h54.26.794,FaceAttractiveness,2022.2.5,143.92610256877634,
treatment,0% Never,100% Always,images\ LIP_CFD_LF_224_176_N.png,0,0,0,0,4,87,467,50,,,,,,,,,,,,,,,,,,,,,,,,2023-04-07_19h54.26.794,FaceAttractiveness,2022.2.5,143.92610256877634,
treatment,0% Never,100% Always,"images\ LCHEEK_136_M_M_N_A.png
",0,0,0,0,4,88,468,22,,,,,,,,,,,,,,,,,,,,,,,,2023-04-07_19h54.26.794,FaceAttractiveness,2022.2.5,143.92610256877634,
treatment,0% Never,100% Always,images\ LCHEEK_CFD_AF_237_223_N.png,0,0,0,0,4,89,469,24,,,,,,,,,,,,,,,,,,,,,,,,2023-04-07_19h54.26.794,FaceAttractiveness,2022.2.5,143.92610256877634,
treatment,0% Never,100% Always,images\ LIP_CFD_WF_200_099_N.png,0,0,0,0,4,90,470,54,,,,,,,,,,,,,,,,,,,,,,,,2023-04-07_19h54.26.794,FaceAttractiveness,2022.2.5,143.92610256877634,
treatment,0% Never,100% Always,images\ LCHEEK_CFD_BF_224_002_N.png,0,0,0,0,4,91,471,28,,,,,,,,,,,,,,,,,,,,,,,,2023-04-07_19h54.26.794,FaceAttractiveness,2022.2.5,143.92610256877634,
treatment,0% Never,100% Always,images\ LCHEEK_087_M_M_N_A.png,0,0,0,0,4,92,472,21,,,,,,,,,,,,,,,,,,,,,,,,2023-04-07_19h54.26.794,FaceAttractiveness,2022.2.5,143.92610256877634,
treatment,0% Never,100% Always,images\ LIP_CFD_BF_224_002_N.png,0,0,0,0,4,93,473,47,,,,,,,,,,,,,,,,,,,,,,,,2023-04-07_19h54.26.794,FaceAttractiveness,2022.2.5,143.92610256877634,
treatment,0% Never,100% Always,images\ LIP_CFD_LM_201_057_N.png,0,0,0,0,4,94,474,51,,,,,,,,,,,,,,,,,,,,,,,,2023-04-07_19h54.26.794,FaceAttractiveness,2022.2.5,143.92610256877634,
treatment,0% Never,100% Always,images\ RCHEEK_CFD_WF_250_167_N.png,0,0,0,0,5,0,475,93,,,,,,,,,,,,,,,,,,,,,,,,2023-04-07_19h54.26.794,FaceAttractiveness,2022.2.5,143.92610256877634,
treatment,0% Never,100% Always,images\ NASALTIP_087_M_M_N_A.png,0,0,0,0,5,1,476,59,,,,,,,,,,,,,,,,,,,,,,,,2023-04-07_19h54.26.794,FaceAttractiveness,2022.2.5,143.92610256877634,
treatment,0% Never,100% Always,images\FOREHEAD_136_M_M_N_A.png,0,0,0,0,5,2,477,3,,,,,,,,,,,,,,,,,,,,,,,,2023-04-07_19h54.26.794,FaceAttractiveness,2022.2.5,143.92610256877634,
treatment,0% Never,100% Always,"images\ NASALTIP_CFD_WF_002_004_N.png
",0,0,0,0,5,3,478,72,,,,,,,,,,,,,,,,,,,,,,,,2023-04-07_19h54.26.794,FaceAttractiveness,2022.2.5,143.92610256877634,
treatment,0% Never,100% Always,images\ RCHEEK_035_M_F_N_A.png,0,0,0,0,5,4,479,77,,,,,,,,,,,,,,,,,,,,,,,,2023-04-07_19h54.26.794,FaceAttractiveness,2022.2.5,143.92610256877634,
treatment,0% Never,100% Always,images\ LIP_006_M_F_N_A.png,0,0,0,0,5,5,480,38,,,,,,,,,,,,,,,,,,,,,,,,2023-04-07_19h54.26.794,FaceAttractiveness,2022.2.5,143.92610256877634,
treatment,0% Never,100% Always,images\ RCHEEK_CFD_LM_201_057_N.png,0,0,0,0,5,6,481,89,,,,,,,,,,,,,,,,,,,,,,,,2023-04-07_19h54.26.794,FaceAttractiveness,2022.2.5,143.92610256877634,
treatment,0% Never,100% Always,images\ NASALTIP_006_M_F_N_A.png,0,0,0,0,5,7,482,57,,,,,,,,,,,,,,,,,,,,,,,,2023-04-07_19h54.26.794,FaceAttractiveness,2022.2.5,143.92610256877634,
treatment,0% Never,100% Always,images\ RCHEEK_CFD_LM_203_026_N.png,0,0,0,0,5,8,483,90,,,,,,,,,,,,,,,,,,,,,,,,2023-04-07_19h54.26.794,FaceAttractiveness,2022.2.5,143.92610256877634,
treatment,0% Never,100% Always,images\ LCHEEK_CFD_AF_245_143_N.png,0,0,0,0,5,9,484,25,,,,,,,,,,,,,,,,,,,,,,,,2023-04-07_19h54.26.794,FaceAttractiveness,2022.2.5,143.92610256877634,
treatment,0% Never,100% Always,images\ LIP_CFD_AF_231_357_N.png,0,0,0,0,5,10,485,42,,,,,,,,,,,,,,,,,,,,,,,,2023-04-07_19h54.26.794,FaceAttractiveness,2022.2.5,143.92610256877634,
treatment,0% Never,100% Always,images\FOREHEAD_CFD_AF_237_223_N.png,0,0,0,0,5,11,486,5,,,,,,,,,,,,,,,,,,,,,,,,2023-04-07_19h54.26.794,FaceAttractiveness,2022.2.5,143.92610256877634,
treatment,0% Never,100% Always,images\ LCHEEK_CFD_BF_214_308_N.png,0,0,0,0,5,12,487,27,,,,,,,,,,,,,,,,,,,,,,,,2023-04-07_19h54.26.794,FaceAttractiveness,2022.2.5,143.92610256877634,
treatment,0% Never,100% Always,"images\ LCHEEK_CFD_BM_234_172_N.png
",0,0,0,0,5,13,488,30,,,,,,,,,,,,,,,,,,,,,,,,2023-04-07_19h54.26.794,FaceAttractiveness,2022.2.5,143.92610256877634,
treatment,0% Never,100% Always,images\ NASALTIP_CFD_AF_231_357_N.png,0,0,0,0,5,14,489,61,,,,,,,,,,,,,,,,,,,,,,,,2023-04-07_19h54.26.794,FaceAttractiveness,2022.2.5,143.92610256877634,
treatment,0% Never,100% Always,"images\ RCHEEK_136_M_M_N_A.png
",0,0,0,0,5,15,490,79,,,,,,,,,,,,,,,,,,,,,,,,2023-04-07_19h54.26.794,FaceAttractiveness,2022.2.5,143.92610256877634,
treatment,0% Never,100% Always,images\ NASALTIP_CFD_WM_212_097_N.png,0,0,0,0,5,16,491,75,,,,,,,,,,,,,,,,,,,,,,,,2023-04-07_19h54.26.794,FaceAttractiveness,2022.2.5,143.92610256877634,
treatment,0% Never,100% Always,images\ LIP_035_M_F_N_A.png,0,0,0,0,5,17,492,39,,,,,,,,,,,,,,,,,,,,,,,,2023-04-07_19h54.26.794,FaceAttractiveness,2022.2.5,143.92610256877634,
treatment,0% Never,100% Always,images\FOREHEAD_CFD_LF_224_176_N.png,0,0,0,0,5,18,493,12,,,,,,,,,,,,,,,,,,,,,,,,2023-04-07_19h54.26.794,FaceAttractiveness,2022.2.5,143.92610256877634,
treatment,0% Never,100% Always,"images\ NASALTIP_136_M_M_N_A.png
",0,0,0,0,5,19,494,60,,,,,,,,,,,,,,,,,,,,,,,,2023-04-07_19h54.26.794,FaceAttractiveness,2022.2.5,143.92610256877634,
treatment,0% Never,100% Always,images\ LIP_CFD_BF_224_002_N.png,0,0,0,0,5,20,495,47,,,,,,,,,,,,,,,,,,,,,,,,2023-04-07_19h54.26.794,FaceAttractiveness,2022.2.5,143.92610256877634,
treatment,0% Never,100% Always,images\ NASALTIP_CFD_BM_213_134_N.png,0,0,0,0,5,21,496,67,,,,,,,,,,,,,,,,,,,,,,,,2023-04-07_19h54.26.794,FaceAttractiveness,2022.2.5,143.92610256877634,
treatment,0% Never,100% Always,images\ RCHEEK_CFD_BF_214_308_N.png,0,0,0,0,5,22,497,84,,,,,,,,,,,,,,,,,,,,,,,,2023-04-07_19h54.26.794,FaceAttractiveness,2022.2.5,143.92610256877634,
treatment,0% Never,100% Always,images\ LIP_CFD_AF_237_223_N.png,0,0,0,0,5,23,498,43,,,,,,,,,,,,,,,,,,,,,,,,2023-04-07_19h54.26.794,FaceAttractiveness,2022.2.5,143.92610256877634,
treatment,0% Never,100% Always,images\FOREHEAD_CFD_BF_214_308_N.png,0,0,0,0,5,24,499,8,,,,,,,,,,,,,,,,,,,,,,,,2023-04-07_19h54.26.794,FaceAttractiveness,2022.2.5,143.92610256877634,
treatment,0% Never,100% Always,images\ LIP_CFD_WF_250_167_N.png,0,0,0,0,5,25,500,55,,,,,,,,,,,,,,,,,,,,,,,,2023-04-07_19h54.26.794,FaceAttractiveness,2022.2.5,143.92610256877634,
treatment,0% Never,100% Always,"images\ NASALTIP_CFD_BM_234_172_N.png
",0,0,0,0,5,26,501,68,,,,,,,,,,,,,,,,,,,,,,,,2023-04-07_19h54.26.794,FaceAttractiveness,2022.2.5,143.92610256877634,
treatment,0% Never,100% Always,"images\ RCHEEK_CFD_AM_233_236_N.png
",0,0,0,0,5,27,502,83,,,,,,,,,,,,,,,,,,,,,,,,2023-04-07_19h54.26.794,FaceAttractiveness,2022.2.5,143.92610256877634,
treatment,0% Never,100% Always,images\ RCHEEK_CFD_WF_200_099_N.png,0,0,0,0,5,28,503,92,,,,,,,,,,,,,,,,,,,,,,,,2023-04-07_19h54.26.794,FaceAttractiveness,2022.2.5,143.92610256877634,
treatment,0% Never,100% Always,images\ RCHEEK_CFD_AF_231_357_N.png,0,0,0,0,5,29,504,80,,,,,,,,,,,,,,,,,,,,,,,,2023-04-07_19h54.26.794,FaceAttractiveness,2022.2.5,143.92610256877634,
treatment,0% Never,100% Always,images\FOREHEAD_CFD_LM_201_057_N.png,0,0,0,0,5,30,505,13,,,,,,,,,,,,,,,,,,,,,,,,2023-04-07_19h54.26.794,FaceAttractiveness,2022.2.5,143.92610256877634,
treatment,0% Never,100% Always,images\ LIP_CFD_AF_245_143_N.png,0,0,0,0,5,31,506,44,,,,,,,,,,,,,,,,,,,,,,,,2023-04-07_19h54.26.794,FaceAttractiveness,2022.2.5,143.92610256877634,
treatment,0% Never,100% Always,images\ LCHEEK_CFD_LF_224_176_N.png,0,0,0,0,5,32,507,31,,,,,,,,,,,,,,,,,,,,,,,,2023-04-07_19h54.26.794,FaceAttractiveness,2022.2.5,143.92610256877634,
treatment,0% Never,100% Always,images\FOREHEAD_035_M_F_N_A.png,0,0,0,0,5,33,508,1,,,,,,,,,,,,,,,,,,,,,,,,2023-04-07_19h54.26.794,FaceAttractiveness,2022.2.5,143.92610256877634,
treatment,0% Never,100% Always,images\ RCHEEK_CFD_WM_212_097_N.png,0,0,0,0,5,34,509,94,,,,,,,,,,,,,,,,,,,,,,,,2023-04-07_19h54.26.794,FaceAttractiveness,2022.2.5,143.92610256877634,
treatment,0% Never,100% Always,images\FOREHEAD_CFD_WM_212_097_N.png,0,0,0,0,5,35,510,18,,,,,,,,,,,,,,,,,,,,,,,,2023-04-07_19h54.26.794,FaceAttractiveness,2022.2.5,143.92610256877634,
treatment,0% Never,100% Always,images\FOREHEAD_CFD_AM_233_236_N.png,0,0,0,0,5,36,511,7,,,,,,,,,,,,,,,,,,,,,,,,2023-04-07_19h54.26.794,FaceAttractiveness,2022.2.5,143.92610256877634,
treatment,0% Never,100% Always,images\ RCHEEK_CFD_BF_224_002_N.png,0,0,0,0,5,37,512,85,,,,,,,,,,,,,,,,,,,,,,,,2023-04-07_19h54.26.794,FaceAttractiveness,2022.2.5,143.92610256877634,
treatment,0% Never,100% Always,images\FOREHEAD_087_M_M_N_A.png,0,0,0,0,5,38,513,2,,,,,,,,,,,,,,,,,,,,,,,,2023-04-07_19h54.26.794,FaceAttractiveness,2022.2.5,143.92610256877634,
treatment,0% Never,100% Always,images\ NASALTIP_CFD_LM_203_026_N.png,0,0,0,0,5,39,514,71,,,,,,,,,,,,,,,,,,,,,,,,2023-04-07_19h54.26.794,FaceAttractiveness,2022.2.5,143.92610256877634,
treatment,0% Never,100% Always,images\FOREHEAD_CFD_LM_203_026_N.png,0,0,0,0,5,40,515,14,,,,,,,,,,,,,,,,,,,,,,,,2023-04-07_19h54.26.794,FaceAttractiveness,2022.2.5,143.92610256877634,
treatment,0% Never,100% Always,images\ NASALTIP_CFD_WF_250_167_N.png,0,0,0,0,5,41,516,74,,,,,,,,,,,,,,,,,,,,,,,,2023-04-07_19h54.26.794,FaceAttractiveness,2022.2.5,143.92610256877634,
treatment,0% Never,100% Always,images\ RCHEEK_CFD_BM_213_134_N.png,0,0,0,0,5,42,517,86,,,,,,,,,,,,,,,,,,,,,,,,2023-04-07_19h54.26.794,FaceAttractiveness,2022.2.5,143.92610256877634,
treatment,0% Never,100% Always,"images\ LIP_136_M_M_N_A.png
",0,0,0,0,5,43,518,41,,,,,,,,,,,,,,,,,,,,,,,,2023-04-07_19h54.26.794,FaceAttractiveness,2022.2.5,143.92610256877634,
treatment,0% Never,100% Always,images\FOREHEAD_CFD_BM_234_172_N.png,0,0,0,0,5,44,519,11,,,,,,,,,,,,,,,,,,,,,,,,2023-04-07_19h54.26.794,FaceAttractiveness,2022.2.5,143.92610256877634,
treatment,0% Never,100% Always,images\ LCHEEK_006_M_F_N_A.png,0,0,0,0,5,45,520,19,,,,,,,,,,,,,,,,,,,,,,,,2023-04-07_19h54.26.794,FaceAttractiveness,2022.2.5,143.92610256877634,
treatment,0% Never,100% Always,images\FOREHEAD_CFD_WF_200_099_N.png,0,0,0,0,5,46,521,16,,,,,,,,,,,,,,,,,,,,,,,,2023-04-07_19h54.26.794,FaceAttractiveness,2022.2.5,143.92610256877634,
treatment,0% Never,100% Always,images\FOREHEAD_CFD_BM_213_134_N.png,0,0,0,0,5,47,522,10,,,,,,,,,,,,,,,,,,,,,,,,2023-04-07_19h54.26.794,FaceAttractiveness,2022.2.5,143.92610256877634,
treatment,0% Never,100% Always,images\ LIP_CFD_BF_214_308_N.png,0,0,0,0,5,48,523,46,,,,,,,,,,,,,,,,,,,,,,,,2023-04-07_19h54.26.794,FaceAttractiveness,2022.2.5,143.92610256877634,
treatment,0% Never,100% Always,images\ RCHEEK_006_M_F_N_A.png,0,0,0,0,5,49,524,76,,,,,,,,,,,,,,,,,,,,,,,,2023-04-07_19h54.26.794,FaceAttractiveness,2022.2.5,143.92610256877634,
treatment,0% Never,100% Always,images\ RCHEEK_CFD_AF_237_223_N.png,0,0,0,0,5,50,525,81,,,,,,,,,,,,,,,,,,,,,,,,2023-04-07_19h54.26.794,FaceAttractiveness,2022.2.5,143.92610256877634,
treatment,0% Never,100% Always,images\ LCHEEK_CFD_BM_213_134_N.png,0,0,0,0,5,51,526,29,,,,,,,,,,,,,,,,,,,,,,,,2023-04-07_19h54.26.794,FaceAttractiveness,2022.2.5,143.92610256877634,
treatment,0% Never,100% Always,images\ LCHEEK_CFD_WM_212_097_N.png,0,0,0,0,5,52,527,37,,,,,,,,,,,,,,,,,,,,,,,,2023-04-07_19h54.26.794,FaceAttractiveness,2022.2.5,143.92610256877634,
treatment,0% Never,100% Always,images\ LCHEEK_087_M_M_N_A.png,0,0,0,0,5,53,528,21,,,,,,,,,,,,,,,,,,,,,,,,2023-04-07_19h54.26.794,FaceAttractiveness,2022.2.5,143.92610256877634,
treatment,0% Never,100% Always,images\ LIP_CFD_LM_201_057_N.png,0,0,0,0,5,54,529,51,,,,,,,,,,,,,,,,,,,,,,,,2023-04-07_19h54.26.794,FaceAttractiveness,2022.2.5,143.92610256877634,
treatment,0% Never,100% Always,images\ NASALTIP_CFD_AF_237_223_N.png,0,0,0,0,5,55,530,62,,,,,,,,,,,,,,,,,,,,,,,,2023-04-07_19h54.26.794,FaceAttractiveness,2022.2.5,143.92610256877634,
treatment,0% Never,100% Always,"images\ LIP_CFD_BM_234_172_N.png
",0,0,0,0,5,56,531,49,,,,,,,,,,,,,,,,,,,,,,,,2023-04-07_19h54.26.794,FaceAttractiveness,2022.2.5,143.92610256877634,
treatment,0% Never,100% Always,images\ LIP_CFD_LF_224_176_N.png,0,0,0,0,5,57,532,50,,,,,,,,,,,,,,,,,,,,,,,,2023-04-07_19h54.26.794,FaceAttractiveness,2022.2.5,143.92610256877634,
treatment,0% Never,100% Always,images\ LIP_CFD_LM_203_026_N.png,0,0,0,0,5,58,533,52,,,,,,,,,,,,,,,,,,,,,,,,2023-04-07_19h54.26.794,FaceAttractiveness,2022.2.5,143.92610256877634,
treatment,0% Never,100% Always,images\ NASALTIP_CFD_LF_224_176_N.png,0,0,0,0,5,59,534,69,,,,,,,,,,,,,,,,,,,,,,,,2023-04-07_19h54.26.794,FaceAttractiveness,2022.2.5,143.92610256877634,
treatment,0% Never,100% Always,images\ LCHEEK_035_M_F_N_A.png,0,0,0,0,5,60,535,20,,,,,,,,,,,,,,,,,,,,,,,,2023-04-07_19h54.26.794,FaceAttractiveness,2022.2.5,143.92610256877634,
treatment,0% Never,100% Always,images\ NASALTIP_CFD_BF_224_002_N.png,0,0,0,0,5,61,536,66,,,,,,,,,,,,,,,,,,,,,,,,2023-04-07_19h54.26.794,FaceAttractiveness,2022.2.5,143.92610256877634,
treatment,0% Never,100% Always,images\ LIP_CFD_BM_213_134_N.png,0,0,0,0,5,62,537,48,,,,,,,,,,,,,,,,,,,,,,,,2023-04-07_19h54.26.794,FaceAttractiveness,2022.2.5,143.92610256877634,
treatment,0% Never,100% Always,images\ RCHEEK_087_M_M_N_A.png,0,0,0,0,5,63,538,78,,,,,,,,,,,,,,,,,,,,,,,,2023-04-07_19h54.26.794,FaceAttractiveness,2022.2.5,143.92610256877634,
treatment,0% Never,100% Always,images\ NASALTIP_CFD_AF_245_143_N.png,0,0,0,0,5,64,539,63,,,,,,,,,,,,,,,,,,,,,,,,2023-04-07_19h54.26.794,FaceAttractiveness,2022.2.5,143.92610256877634,
treatment,0% Never,100% Always,images\ LCHEEK_CFD_LM_203_026_N.png,0,0,0,0,5,65,540,33,,,,,,,,,,,,,,,,,,,,,,,,2023-04-07_19h54.26.794,FaceAttractiveness,2022.2.5,143.92610256877634,
treatment,0% Never,100% Always,images\ LCHEEK_CFD_BF_224_002_N.png,0,0,0,0,5,66,541,28,,,,,,,,,,,,,,,,,,,,,,,,2023-04-07_19h54.26.794,FaceAttractiveness,2022.2.5,143.92610256877634,
treatment,0% Never,100% Always,images\ NASALTIP_CFD_BF_214_308_N.png,0,0,0,0,5,67,542,65,,,,,,,,,,,,,,,,,,,,,,,,2023-04-07_19h54.26.794,FaceAttractiveness,2022.2.5,143.92610256877634,
treatment,0% Never,100% Always,images\ RCHEEK_CFD_AF_245_143_N.png,0,0,0,0,5,68,543,82,,,,,,,,,,,,,,,,,,,,,,,,2023-04-07_19h54.26.794,FaceAttractiveness,2022.2.5,143.92610256877634,
treatment,0% Never,100% Always,"images\ LIP_CFD_AM_233_236_N.png
",0,0,0,0,5,69,544,45,,,,,,,,,,,,,,,,,,,,,,,,2023-04-07_19h54.26.794,FaceAttractiveness,2022.2.5,143.92610256877634,
treatment,0% Never,100% Always,"images\ RCHEEK_CFD_BM_234_172_N.png
",0,0,0,0,5,70,545,87,,,,,,,,,,,,,,,,,,,,,,,,2023-04-07_19h54.26.794,FaceAttractiveness,2022.2.5,143.92610256877634,
treatment,0% Never,100% Always,images\ LCHEEK_CFD_WF_250_167_N.png,0,0,0,0,5,71,546,36,,,,,,,,,,,,,,,,,,,,,,,,2023-04-07_19h54.26.794,FaceAttractiveness,2022.2.5,143.92610256877634,
treatment,0% Never,100% Always,images\FOREHEAD_006_M_F_N_A.png,0,0,0,0,5,72,547,0,,,,,,,,,,,,,,,,,,,,,,,,2023-04-07_19h54.26.794,FaceAttractiveness,2022.2.5,143.92610256877634,
treatment,0% Never,100% Always,"images\ LCHEEK_136_M_M_N_A.png
