Task,LeftLabel,RightLabel,faceImages,RatingBlockOrder.thisRepN,RatingBlockOrder.thisTrialN,RatingBlockOrder.thisN,RatingBlockOrder.thisIndex,originalFaceTrials.thisRepN,originalFaceTrials.thisTrialN,originalFaceTrials.thisN,originalFaceTrials.thisIndex,face_image_q.started,slider_trustworthy.started,text_trustworthy.started,slider_aggressive.started,text_aggressive.started,Confirm.started,mouse_7.started,Name,Gender,Age,Ethnicity,date,expName,psychopyVersion,frameRate,
treatment,0% Never,100% Always,images\ NASALTIP_CFD_BM_213_134_N.png,0,0,0,0,0,0,0,67,,,,,,,,,,,,2023-04-07_19h45.18.188,FaceAttractiveness,2022.2.5,143.1733514428723,
treatment,0% Never,100% Always,images\ LIP_CFD_BF_214_308_N.png,0,0,0,0,0,1,1,46,,,,,,,,,,,,2023-04-07_19h45.18.188,FaceAttractiveness,2022.2.5,143.1733514428723,
treatment,0% Never,100% Always,images\ LIP_CFD_LF_224_176_N.png,0,0,0,0,0,2,2,50,,,,,,,,,,,,2023-04-07_19h45.18.188,FaceAttractiveness,2022.2.5,143.1733514428723,
treatment,0% Never,100% Always,images\ NASALTIP_087_M_M_N_A.png,0,0,0,0,0,3,3,59,,,,,,,,,,,,2023-04-07_19h45.18.188,FaceAttractiveness,2022.2.5,143.1733514428723,
treatment,0% Never,100% Always,images\ LIP_CFD_AF_237_223_N.png,0,0,0,0,0,4,4,43,,,,,,,,,,,,2023-04-07_19h45.18.188,FaceAttractiveness,2022.2.5,143.1733514428723,
treatment,0% Never,100% Always,images\FOREHEAD_CFD_WF_250_167_N.png,0,0,0,0,0,5,5,17,,,,,,,,,,,,2023-04-07_19h45.18.188,FaceAttractiveness,2022.2.5,143.1733514428723,
treatment,0% Never,100% Always,"images\ RCHEEK_CFD_AM_233_236_N.png
",0,0,0,0,0,6,6,83,,,,,,,,,,,,2023-04-07_19h45.18.188,FaceAttractiveness,2022.2.5,143.1733514428723,
treatment,0% Never,100% Always,images\ LIP_CFD_WM_212_097_N.png,0,0,0,0,0,7,7,56,,,,,,,,,,,,2023-04-07_19h45.18.188,FaceAttractiveness,2022.2.5,143.1733514428723,
treatment,0% Never,100% Always,images\ LIP_006_M_F_N_A.png,0,0,0,0,0,8,8,38,,,,,,,,,,,,2023-04-07_19h45.18.188,FaceAttractiveness,2022.2.5,143.1733514428723,
treatment,0% Never,100% Always,"images\ NASALTIP_CFD_AM_233_236_N.png
",0,0,0,0,0,9,9,64,,,,,,,,,,,,2023-04-07_19h45.18.188,FaceAttractiveness,2022.2.5,143.1733514428723,
treatment,0% Never,100% Always,images\ NASALTIP_CFD_LM_201_057_N.png,0,0,0,0,0,10,10,70,,,,,,,,,,,,2023-04-07_19h45.18.188,FaceAttractiveness,2022.2.5,143.1733514428723,
treatment,0% Never,100% Always,"images\ NASALTIP_CFD_WF_002_004_N.png
",0,0,0,0,0,11,11,72,,,,,,,,,,,,2023-04-07_19h45.18.188,FaceAttractiveness,2022.2.5,143.1733514428723,
treatment,0% Never,100% Always,images\ RCHEEK_CFD_AF_231_357_N.png,0,0,0,0,0,12,12,80,,,,,,,,,,,,2023-04-07_19h45.18.188,FaceAttractiveness,2022.2.5,143.1733514428723,
treatment,0% Never,100% Always,images\ NASALTIP_CFD_LM_203_026_N.png,0,0,0,0,0,13,13,71,,,,,,,,,,,,2023-04-07_19h45.18.188,FaceAttractiveness,2022.2.5,143.1733514428723,
treatment,0% Never,100% Always,images\ RCHEEK_CFD_AF_245_143_N.png,0,0,0,0,0,14,14,82,,,,,,,,,,,,2023-04-07_19h45.18.188,FaceAttractiveness,2022.2.5,143.1733514428723,
treatment,0% Never,100% Always,"images\ LCHEEK_CFD_AM_233_236_N.png
",0,0,0,0,0,15,15,26,,,,,,,,,,,,2023-04-07_19h45.18.188,FaceAttractiveness,2022.2.5,143.1733514428723,
treatment,0% Never,100% Always,images\ LIP_CFD_WF_200_099_N.png,0,0,0,0,0,16,16,54,,,,,,,,,,,,2023-04-07_19h45.18.188,FaceAttractiveness,2022.2.5,143.1733514428723,
treatment,0% Never,100% Always,images\FOREHEAD_CFD_WF_200_099_N.png,0,0,0,0,0,17,17,16,,,,,,,,,,,,2023-04-07_19h45.18.188,FaceAttractiveness,2022.2.5,143.1733514428723,
treatment,0% Never,100% Always,images\ LIP_CFD_LM_203_026_N.png,0,0,0,0,0,18,18,52,,,,,,,,,,,,2023-04-07_19h45.18.188,FaceAttractiveness,2022.2.5,143.1733514428723,
treatment,0% Never,100% Always,images\FOREHEAD_CFD_BM_234_172_N.png,0,0,0,0,0,19,19,11,,,,,,,,,,,,2023-04-07_19h45.18.188,FaceAttractiveness,2022.2.5,143.1733514428723,
treatment,0% Never,100% Always,images\ RCHEEK_CFD_LM_201_057_N.png,0,0,0,0,0,20,20,89,,,,,,,,,,,,2023-04-07_19h45.18.188,FaceAttractiveness,2022.2.5,143.1733514428723,
treatment,0% Never,100% Always,images\FOREHEAD_CFD_WF_002_004_N.png,0,0,0,0,0,21,21,15,,,,,,,,,,,,2023-04-07_19h45.18.188,FaceAttractiveness,2022.2.5,143.1733514428723,
treatment,0% Never,100% Always,images\FOREHEAD_006_M_F_N_A.png,0,0,0,0,0,22,22,0,,,,,,,,,,,,2023-04-07_19h45.18.188,FaceAttractiveness,2022.2.5,143.1733514428723,
treatment,0% Never,100% Always,images\ NASALTIP_CFD_AF_237_223_N.png,0,0,0,0,0,23,23,62,,,,,,,,,,,,2023-04-07_19h45.18.188,FaceAttractiveness,2022.2.5,143.1733514428723,
treatment,0% Never,100% Always,images\ LIP_035_M_F_N_A.png,0,0,0,0,0,24,24,39,,,,,,,,,,,,2023-04-07_19h45.18.188,FaceAttractiveness,2022.2.5,143.1733514428723,
treatment,0% Never,100% Always,"images\ RCHEEK_CFD_WF_002_004_N.png
",0,0,0,0,0,25,25,91,,,,,,,,,,,,2023-04-07_19h45.18.188,FaceAttractiveness,2022.2.5,143.1733514428723,
treatment,0% Never,100% Always,images\ NASALTIP_CFD_WF_250_167_N.png,0,0,0,0,0,26,26,74,,,,,,,,,,,,2023-04-07_19h45.18.188,FaceAttractiveness,2022.2.5,143.1733514428723,
treatment,0% Never,100% Always,images\ LCHEEK_CFD_AF_231_357_N.png,0,0,0,0,0,27,27,23,,,,,,,,,,,,2023-04-07_19h45.18.188,FaceAttractiveness,2022.2.5,143.1733514428723,
treatment,0% Never,100% Always,"images\ LCHEEK_136_M_M_N_A.png
",0,0,0,0,0,28,28,22,,,,,,,,,,,,2023-04-07_19h45.18.188,FaceAttractiveness,2022.2.5,143.1733514428723,
treatment,0% Never,100% Always,images\ LCHEEK_CFD_AF_245_143_N.png,0,0,0,0,0,29,29,25,,,,,,,,,,,,2023-04-07_19h45.18.188,FaceAttractiveness,2022.2.5,143.1733514428723,
treatment,0% Never,100% Always,"images\ LIP_CFD_WF_002_004_N.png
",0,0,0,0,0,30,30,53,,,,,,,,,,,,2023-04-07_19h45.18.188,FaceAttractiveness,2022.2.5,143.1733514428723,
treatment,0% Never,100% Always,images\FOREHEAD_136_M_M_N_A.png,0,0,0,0,0,31,31,3,,,,,,,,,,,,2023-04-07_19h45.18.188,FaceAttractiveness,2022.2.5,143.1733514428723,
treatment,0% Never,100% Always,images\ RCHEEK_CFD_BF_214_308_N.png,0,0,0,0,0,32,32,84,,,,,,,,,,,,2023-04-07_19h45.18.188,FaceAttractiveness,2022.2.5,143.1733514428723,
treatment,0% Never,100% Always,images\ RCHEEK_087_M_M_N_A.png,0,0,0,0,0,33,33,78,,,,,,,,,,,,2023-04-07_19h45.18.188,FaceAttractiveness,2022.2.5,143.1733514428723,
treatment,0% Never,100% Always,images\FOREHEAD_CFD_AF_245_143_N.png,0,0,0,0,0,34,34,6,,,,,,,,,,,,2023-04-07_19h45.18.188,FaceAttractiveness,2022.2.5,143.1733514428723,
treatment,0% Never,100% Always,images\FOREHEAD_CFD_LM_203_026_N.png,0,0,0,0,0,35,35,14,,,,,,,,,,,,2023-04-07_19h45.18.188,FaceAttractiveness,2022.2.5,143.1733514428723,
treatment,0% Never,100% Always,"images\ LIP_136_M_M_N_A.png
",0,0,0,0,0,36,36,41,,,,,,,,,,,,2023-04-07_19h45.18.188,FaceAttractiveness,2022.2.5,143.1733514428723,
treatment,0% Never,100% Always,images\ NASALTIP_CFD_WF_200_099_N.png,0,0,0,0,0,37,37,73,,,,,,,,,,,,2023-04-07_19h45.18.188,FaceAttractiveness,2022.2.5,143.1733514428723,
treatment,0% Never,100% Always,images\ RCHEEK_CFD_LF_224_176_N.png,0,0,0,0,0,38,38,88,,,,,,,,,,,,2023-04-07_19h45.18.188,FaceAttractiveness,2022.2.5,143.1733514428723,
treatment,0% Never,100% Always,images\ RCHEEK_CFD_WF_250_167_N.png,0,0,0,0,0,39,39,93,,,,,,,,,,,,2023-04-07_19h45.18.188,FaceAttractiveness,2022.2.5,143.1733514428723,
treatment,0% Never,100% Always,images\ LCHEEK_CFD_WF_250_167_N.png,0,0,0,0,0,40,40,36,,,,,,,,,,,,2023-04-07_19h45.18.188,FaceAttractiveness,2022.2.5,143.1733514428723,
treatment,0% Never,100% Always,images\ LCHEEK_CFD_LM_203_026_N.png,0,0,0,0,0,41,41,33,,,,,,,,,,,,2023-04-07_19h45.18.188,FaceAttractiveness,2022.2.5,143.1733514428723,
treatment,0% Never,100% Always,images\ LIP_CFD_BM_213_134_N.png,0,0,0,0,0,42,42,48,,,,,,,,,,,,2023-04-07_19h45.18.188,FaceAttractiveness,2022.2.5,143.1733514428723,
treatment,0% Never,100% Always,images\ LCHEEK_CFD_WM_212_097_N.png,0,0,0,0,0,43,43,37,,,,,,,,,,,,2023-04-07_19h45.18.188,FaceAttractiveness,2022.2.5,143.1733514428723,
treatment,0% Never,100% Always,images\FOREHEAD_CFD_WM_212_097_N.png,0,0,0,0,0,44,44,18,,,,,,,,,,,,2023-04-07_19h45.18.188,FaceAttractiveness,2022.2.5,143.1733514428723,
treatment,0% Never,100% Always,"images\ LCHEEK_CFD_BM_234_172_N.png
",0,0,0,0,0,45,45,30,,,,,,,,,,,,2023-04-07_19h45.18.188,FaceAttractiveness,2022.2.5,143.1733514428723,
treatment,0% Never,100% Always,"images\ RCHEEK_CFD_BM_234_172_N.png
",0,0,0,0,0,46,46,87,,,,,,,,,,,,2023-04-07_19h45.18.188,FaceAttractiveness,2022.2.5,143.1733514428723,
treatment,0% Never,100% Always,images\ LIP_CFD_AF_231_357_N.png,0,0,0,0,0,47,47,42,,,,,,,,,,,,2023-04-07_19h45.18.188,FaceAttractiveness,2022.2.5,143.1733514428723,
treatment,0% Never,100% Always,images\ LIP_CFD_WF_250_167_N.png,0,0,0,0,0,48,48,55,,,,,,,,,,,,2023-04-07_19h45.18.188,FaceAttractiveness,2022.2.5,143.1733514428723,
treatment,0% Never,100% Always,images\ LCHEEK_035_M_F_N_A.png,0,0,0,0,0,49,49,20,,,,,,,,,,,,2023-04-07_19h45.18.188,FaceAttractiveness,2022.2.5,143.1733514428723,
treatment,0% Never,100% Always,"images\ NASALTIP_136_M_M_N_A.png
",0,0,0,0,0,50,50,60,,,,,,,,,,,,2023-04-07_19h45.18.188,FaceAttractiveness,2022.2.5,143.1733514428723,
treatment,0% Never,100% Always,"images\ RCHEEK_136_M_M_N_A.png
",0,0,0,0,0,51,51,79,,,,,,,,,,,,2023-04-07_19h45.18.188,FaceAttractiveness,2022.2.5,143.1733514428723,
treatment,0% Never,100% Always,images\ NASALTIP_CFD_LF_224_176_N.png,0,0,0,0,0,52,52,69,,,,,,,,,,,,2023-04-07_19h45.18.188,FaceAttractiveness,2022.2.5,143.1733514428723,
treatment,0% Never,100% Always,images\FOREHEAD_CFD_BF_224_002_N.png,0,0,0,0,0,53,53,9,,,,,,,,,,,,2023-04-07_19h45.18.188,FaceAttractiveness,2022.2.5,143.1733514428723,
treatment,0% Never,100% Always,images\ NASALTIP_CFD_BF_214_308_N.png,0,0,0,0,0,54,54,65,,,,,,,,,,,,2023-04-07_19h45.18.188,FaceAttractiveness,2022.2.5,143.1733514428723,
treatment,0% Never,100% Always,"images\ NASALTIP_CFD_BM_234_172_N.png
",0,0,0,0,0,55,55,68,,,,,,,,,,,,2023-04-07_19h45.18.188,FaceAttractiveness,2022.2.5,143.1733514428723,
treatment,0% Never,100% Always,images\ NASALTIP_CFD_WM_212_097_N.png,0,0,0,0,0,56,56,75,,,,,,,,,,,,2023-04-07_19h45.18.188,FaceAttractiveness,2022.2.5,143.1733514428723,
treatment,0% Never,100% Always,images\ RCHEEK_035_M_F_N_A.png,0,0,0,0,0,57,57,77,,,,,,,,,,,,2023-04-07_19h45.18.188,FaceAttractiveness,2022.2.5,143.1733514428723,
treatment,0% Never,100% Always,images\ NASALTIP_CFD_BF_224_002_N.png,0,0,0,0,0,58,58,66,,,,,,,,,,,,2023-04-07_19h45.18.188,FaceAttractiveness,2022.2.5,143.1733514428723,
treatment,0% Never,100% Always,images\ NASALTIP_CFD_AF_231_357_N.png,0,0,0,0,0,59,59,61,,,,,,,,,,,,2023-04-07_19h45.18.188,FaceAttractiveness,2022.2.5,143.1733514428723,
treatment,0% Never,100% Always,images\FOREHEAD_CFD_BM_213_134_N.png,0,0,0,0,0,60,60,10,,,,,,,,,,,,2023-04-07_19h45.18.188,FaceAttractiveness,2022.2.5,143.1733514428723,
treatment,0% Never,100% Always,images\ RCHEEK_CFD_LM_203_026_N.png,0,0,0,0,0,61,61,90,,,,,,,,,,,,2023-04-07_19h45.18.188,FaceAttractiveness,2022.2.5,143.1733514428723,
treatment,0% Never,100% Always,images\ LIP_087_M_M_N_A.png,0,0,0,0,0,62,62,40,,,,,,,,,,,,2023-04-07_19h45.18.188,FaceAttractiveness,2022.2.5,143.1733514428723,
treatment,0% Never,100% Always,images\ LCHEEK_CFD_BF_224_002_N.png,0,0,0,0,0,63,63,28,,,,,,,,,,,,2023-04-07_19h45.18.188,FaceAttractiveness,2022.2.5,143.1733514428723,
treatment,0% Never,100% Always,images\ NASALTIP_CFD_AF_245_143_N.png,0,0,0,0,0,64,64,63,,,,,,,,,,,,2023-04-07_19h45.18.188,FaceAttractiveness,2022.2.5,143.1733514428723,
treatment,0% Never,100% Always,images\ RCHEEK_CFD_WF_200_099_N.png,0,0,0,0,0,65,65,92,,,,,,,,,,,,2023-04-07_19h45.18.188,FaceAttractiveness,2022.2.5,143.1733514428723,
treatment,0% Never,100% Always,images\FOREHEAD_CFD_AF_231_357_N.png,0,0,0,0,0,66,66,4,,,,,,,,,,,,2023-04-07_19h45.18.188,FaceAttractiveness,2022.2.5,143.1733514428723,
treatment,0% Never,100% Always,images\ LCHEEK_CFD_AF_237_223_N.png,0,0,0,0,0,67,67,24,,,,,,,,,,,,2023-04-07_19h45.18.188,FaceAttractiveness,2022.2.5,143.1733514428723,
treatment,0% Never,100% Always,images\ RCHEEK_CFD_WM_212_097_N.png,0,0,0,0,0,68,68,94,,,,,,,,,,,,2023-04-07_19h45.18.188,FaceAttractiveness,2022.2.5,143.1733514428723,
treatment,0% Never,100% Always,images\ LIP_CFD_LM_201_057_N.png,0,0,0,0,0,69,69,51,,,,,,,,,,,,2023-04-07_19h45.18.188,FaceAttractiveness,2022.2.5,143.1733514428723,
treatment,0% Never,100% Always,images\ LCHEEK_006_M_F_N_A.png,0,0,0,0,0,70,70,19,,,,,,,,,,,,2023-04-07_19h45.18.188,FaceAttractiveness,2022.2.5,143.1733514428723,
treatment,0% Never,100% Always,images\FOREHEAD_CFD_AM_233_236_N.png,0,0,0,0,0,71,71,7,,,,,,,,,,,,2023-04-07_19h45.18.188,FaceAttractiveness,2022.2.5,143.1733514428723,
treatment,0% Never,100% Always,images\ LCHEEK_087_M_M_N_A.png,0,0,0,0,0,72,72,21,,,,,,,,,,,,2023-04-07_19h45.18.188,FaceAttractiveness,2022.2.5,143.1733514428723,
treatment,0% Never,100% Always,images\ LCHEEK_CFD_BF_214_308_N.png,0,0,0,0,0,73,73,27,,,,,,,,,,,,2023-04-07_19h45.18.188,FaceAttractiveness,2022.2.5,143.1733514428723,
treatment,0% Never,100% Always,images\FOREHEAD_035_M_F_N_A.png,0,0,0,0,0,74,74,1,,,,,,,,,,,,2023-04-07_19h45.18.188,FaceAttractiveness,2022.2.5,143.1733514428723,
treatment,0% Never,100% Always,images\ LIP_CFD_AF_245_143_N.png,0,0,0,0,0,75,75,44,,,,,,,,,,,,2023-04-07_19h45.18.188,FaceAttractiveness,2022.2.5,143.1733514428723,
treatment,0% Never,100% Always,images\ RCHEEK_CFD_BM_213_134_N.png,0,0,0,0,0,76,76,86,,,,,,,,,,,,2023-04-07_19h45.18.188,FaceAttractiveness,2022.2.5,143.1733514428723,
treatment,0% Never,100% Always,images\FOREHEAD_CFD_BF_214_308_N.png,0,0,0,0,0,77,77,8,,,,,,,,,,,,2023-04-07_19h45.18.188,FaceAttractiveness,2022.2.5,143.1733514428723,
treatment,0% Never,100% Always,images\ NASALTIP_006_M_F_N_A.png,0,0,0,0,0,78,78,57,,,,,,,,,,,,2023-04-07_19h45.18.188,FaceAttractiveness,2022.2.5,143.1733514428723,
treatment,0% Never,100% Always,images\ LCHEEK_CFD_BM_213_134_N.png,0,0,0,0,0,79,79,29,,,,,,,,,,,,2023-04-07_19h45.18.188,FaceAttractiveness,2022.2.5,143.1733514428723,
treatment,0% Never,100% Always,images\ LCHEEK_CFD_WF_200_099_N.png,0,0,0,0,0,80,80,35,,,,,,,,,,,,2023-04-07_19h45.18.188,FaceAttractiveness,2022.2.5,143.1733514428723,
treatment,0% Never,100% Always,"images\ LIP_CFD_BM_234_172_N.png
",0,0,0,0,0,81,81,49,,,,,,,,,,,,2023-04-07_19h45.18.188,FaceAttractiveness,2022.2.5,143.1733514428723,
treatment,0% Never,100% Always,images\ RCHEEK_CFD_AF_237_223_N.png,0,0,0,0,0,82,82,81,,,,,,,,,,,,2023-04-07_19h45.18.188,FaceAttractiveness,2022.2.5,143.1733514428723,
treatment,0% Never,100% Always,"images\ LIP_CFD_AM_233_236_N.png
",0,0,0,0,0,83,83,45,,,,,,,,,,,,2023-04-07_19h45.18.188,FaceAttractiveness,2022.2.5,143.1733514428723,
treatment,0% Never,100% Always,images\ LCHEEK_CFD_LF_224_176_N.png,0,0,0,0,0,84,84,31,,,,,,,,,,,,2023-04-07_19h45.18.188,FaceAttractiveness,2022.2.5,143.1733514428723,
treatment,0% Never,100% Always,images\ RCHEEK_006_M_F_N_A.png,0,0,0,0,0,85,85,76,,,,,,,,,,,,2023-04-07_19h45.18.188,FaceAttractiveness,2022.2.5,143.1733514428723,
treatment,0% Never,100% Always,images\ LIP_CFD_BF_224_002_N.png,0,0,0,0,0,86,86,47,,,,,,,,,,,,2023-04-07_19h45.18.188,FaceAttractiveness,2022.2.5,143.1733514428723,
treatment,0% Never,100% Always,images\ RCHEEK_CFD_BF_224_002_N.png,0,0,0,0,0,87,87,85,,,,,,,,,,,,2023-04-07_19h45.18.188,FaceAttractiveness,2022.2.5,143.1733514428723,
treatment,0% Never,100% Always,images\FOREHEAD_CFD_LF_224_176_N.png,0,0,0,0,0,88,88,12,,,,,,,,,,,,2023-04-07_19h45.18.188,FaceAttractiveness,2022.2.5,143.1733514428723,
treatment,0% Never,100% Always,images\FOREHEAD_CFD_LM_201_057_N.png,0,0,0,0,0,89,89,13,,,,,,,,,,,,2023-04-07_19h45.18.188,FaceAttractiveness,2022.2.5,143.1733514428723,
treatment,0% Never,100% Always,images\FOREHEAD_087_M_M_N_A.png,0,0,0,0,0,90,90,2,,,,,,,,,,,,2023-04-07_19h45.18.188,FaceAttractiveness,2022.2.5,143.1733514428723,
treatment,0% Never,100% Always,"images\ LCHEEK_CFD_WF_002_004_N.png
",0,0,0,0,0,91,91,34,,,,,,,,,,,,2023-04-07_19h45.18.188,FaceAttractiveness,2022.2.5,143.1733514428723,
treatment,0% Never,100% Always,images\FOREHEAD_CFD_AF_237_223_N.png,0,0,0,0,0,92,92,5,,,,,,,,,,,,2023-04-07_19h45.18.188,FaceAttractiveness,2022.2.5,143.1733514428723,
treatment,0% Never,100% Always,images\ LCHEEK_CFD_LM_201_057_N.png,0,0,0,0,0,93,93,32,,,,,,,,,,,,2023-04-07_19h45.18.188,FaceAttractiveness,2022.2.5,143.1733514428723,
treatment,0% Never,100% Always,images\ NASALTIP_035_M_F_N_A.png,0,0,0,0,0,94,94,58,,,,,,,,,,,,2023-04-07_19h45.18.188,FaceAttractiveness,2022.2.5,143.1733514428723,
treatment,0% Never,100% Always,images\ RCHEEK_CFD_WF_200_099_N.png,0,0,0,0,1,0,95,92,,,,,,,,,,,,2023-04-07_19h45.18.188,FaceAttractiveness,2022.2.5,143.1733514428723,
treatment,0% Never,100% Always,images\ RCHEEK_CFD_LM_203_026_N.png,0,0,0,0,1,1,96,90,,,,,,,,,,,,2023-04-07_19h45.18.188,FaceAttractiveness,2022.2.5,143.1733514428723,
treatment,0% Never,100% Always,"images\ LIP_CFD_BM_234_172_N.png
",0,0,0,0,1,2,97,49,,,,,,,,,,,,2023-04-07_19h45.18.188,FaceAttractiveness,2022.2.5,143.1733514428723,
treatment,0% Never,100% Always,images\ NASALTIP_CFD_AF_237_223_N.png,0,0,0,0,1,3,98,62,,,,,,,,,,,,2023-04-07_19h45.18.188,FaceAttractiveness,2022.2.5,143.1733514428723,
treatment,0% Never,100% Always,images\ RCHEEK_CFD_WM_212_097_N.png,0,0,0,0,1,4,99,94,,,,,,,,,,,,2023-04-07_19h45.18.188,FaceAttractiveness,2022.2.5,143.1733514428723,
treatment,0% Never,100% Always,images\ LCHEEK_CFD_LF_224_176_N.png,0,0,0,0,1,5,100,31,,,,,,,,,,,,2023-04-07_19h45.18.188,FaceAttractiveness,2022.2.5,143.1733514428723,
treatment,0% Never,100% Always,"images\ NASALTIP_CFD_WF_002_004_N.png
",0,0,0,0,1,6,101,72,,,,,,,,,,,,2023-04-07_19h45.18.188,FaceAttractiveness,2022.2.5,143.1733514428723,
treatment,0% Never,100% Always,"images\ RCHEEK_CFD_BM_234_172_N.png
",0,0,0,0,1,7,102,87,,,,,,,,,,,,2023-04-07_19h45.18.188,FaceAttractiveness,2022.2.5,143.1733514428723,
treatment,0% Never,100% Always,images\ LCHEEK_CFD_AF_245_143_N.png,0,0,0,0,1,8,103,25,,,,,,,,,,,,2023-04-07_19h45.18.188,FaceAttractiveness,2022.2.5,143.1733514428723,
treatment,0% Never,100% Always,images\ RCHEEK_CFD_BM_213_134_N.png,0,0,0,0,1,9,104,86,,,,,,,,,,,,2023-04-07_19h45.18.188,FaceAttractiveness,2022.2.5,143.1733514428723,
treatment,0% Never,100% Always,images\ RCHEEK_CFD_AF_245_143_N.png,0,0,0,0,1,10,105,82,,,,,,,,,,,,2023-04-07_19h45.18.188,FaceAttractiveness,2022.2.5,143.1733514428723,
treatment,0% Never,100% Always,images\ RCHEEK_CFD_AF_237_223_N.png,0,0,0,0,1,11,106,81,,,,,,,,,,,,2023-04-07_19h45.18.188,FaceAttractiveness,2022.2.5,143.1733514428723,
treatment,0% Never,100% Always,images\FOREHEAD_CFD_BF_224_002_N.png,0,0,0,0,1,12,107,9,,,,,,,,,,,,2023-04-07_19h45.18.188,FaceAttractiveness,2022.2.5,143.1733514428723,
treatment,0% Never,100% Always,images\ NASALTIP_CFD_LM_201_057_N.png,0,0,0,0,1,13,108,70,,,,,,,,,,,,2023-04-07_19h45.18.188,FaceAttractiveness,2022.2.5,143.1733514428723,
treatment,0% Never,100% Always,images\FOREHEAD_CFD_AF_237_223_N.png,0,0,0,0,1,14,109,5,,,,,,,,,,,,2023-04-07_19h45.18.188,FaceAttractiveness,2022.2.5,143.1733514428723,
treatment,0% Never,100% Always,images\ RCHEEK_CFD_LM_201_057_N.png,0,0,0,0,1,15,110,89,,,,,,,,,,,,2023-04-07_19h45.18.188,FaceAttractiveness,2022.2.5,143.1733514428723,
treatment,0% Never,100% Always,images\ RCHEEK_CFD_LF_224_176_N.png,0,0,0,0,1,16,111,88,,,,,,,,,,,,2023-04-07_19h45.18.188,FaceAttractiveness,2022.2.5,143.1733514428723,
treatment,0% Never,100% Always,"images\ LCHEEK_CFD_AM_233_236_N.png
",0,0,0,0,1,17,112,26,,,,,,,,,,,,2023-04-07_19h45.18.188,FaceAttractiveness,2022.2.5,143.1733514428723,
treatment,0% Never,100% Always,"images\ RCHEEK_136_M_M_N_A.png
",0,0,0,0,1,18,113,79,,,,,,,,,,,,2023-04-07_19h45.18.188,FaceAttractiveness,2022.2.5,143.1733514428723,
treatment,0% Never,100% Always,"images\ NASALTIP_CFD_BM_234_172_N.png
",0,0,0,0,1,19,114,68,,,,,,,,,,,,2023-04-07_19h45.18.188,FaceAttractiveness,2022.2.5,143.1733514428723,
treatment,0% Never,100% Always,images\ LCHEEK_CFD_LM_201_057_N.png,0,0,0,0,1,20,115,32,,,,,,,,,,,,2023-04-07_19h45.18.188,FaceAttractiveness,2022.2.5,143.1733514428723,
treatment,0% Never,100% Always,images\FOREHEAD_CFD_LF_224_176_N.png,0,0,0,0,1,21,116,12,,,,,,,,,,,,2023-04-07_19h45.18.188,FaceAttractiveness,2022.2.5,143.1733514428723,
treatment,0% Never,100% Always,images\ LIP_CFD_LM_201_057_N.png,0,0,0,0,1,22,117,51,,,,,,,,,,,,2023-04-07_19h45.18.188,FaceAttractiveness,2022.2.5,143.1733514428723,
treatment,0% Never,100% Always,images\ NASALTIP_087_M_M_N_A.png,0,0,0,0,1,23,118,59,,,,,,,,,,,,2023-04-07_19h45.18.188,FaceAttractiveness,2022.2.5,143.1733514428723,
treatment,0% Never,100% Always,images\ RCHEEK_CFD_WF_250_167_N.png,0,0,0,0,1,24,119,93,,,,,,,,,,,,2023-04-07_19h45.18.188,FaceAttractiveness,2022.2.5,143.1733514428723,
treatment,0% Never,100% Always,images\ RCHEEK_035_M_F_N_A.png,0,0,0,0,1,25,120,77,,,,,,,,,,,,2023-04-07_19h45.18.188,FaceAttractiveness,2022.2.5,143.1733514428723,
treatment,0% Never,100% Always,images\FOREHEAD_CFD_WF_002_004_N.png,0,0,0,0,1,26,121,15,,,,,,,,,,,,2023-04-07_19h45.18.188,FaceAttractiveness,2022.2.5,143.1733514428723,
treatment,0% Never,100% Always,images\ RCHEEK_CFD_BF_224_002_N.png,0,0,0,0,1,27,122,85,,,,,,,,,,,,2023-04-07_19h45.18.188,FaceAttractiveness,2022.2.5,143.1733514428723,
treatment,0% Never,100% Always,images\ RCHEEK_CFD_BF_214_308_N.png,0,0,0,0,1,28,123,84,,,,,,,,,,,,2023-04-07_19h45.18.188,FaceAttractiveness,2022.2.5,143.1733514428723,
treatment,0% Never,100% Always,images\FOREHEAD_CFD_AF_245_143_N.png,0,0,0,0,1,29,124,6,,,,,,,,,,,,2023-04-07_19h45.18.188,FaceAttractiveness,2022.2.5,143.1733514428723,
treatment,0% Never,100% Always,images\ LIP_087_M_M_N_A.png,0,0,0,0,1,30,125,40,,,,,,,,,,,,2023-04-07_19h45.18.188,FaceAttractiveness,2022.2.5,143.1733514428723,
treatment,0% Never,100% Always,images\ NASALTIP_CFD_BF_224_002_N.png,0,0,0,0,1,31,126,66,,,,,,,,,,,,2023-04-07_19h45.18.188,FaceAttractiveness,2022.2.5,143.1733514428723,
treatment,0% Never,100% Always,images\FOREHEAD_CFD_BM_213_134_N.png,0,0,0,0,1,32,127,10,,,,,,,,,,,,2023-04-07_19h45.18.188,FaceAttractiveness,2022.2.5,143.1733514428723,
treatment,0% Never,100% Always,images\FOREHEAD_CFD_WF_250_167_N.png,0,0,0,0,1,33,128,17,,,,,,,,,,,,2023-04-07_19h45.18.188,FaceAttractiveness,2022.2.5,143.1733514428723,
treatment,0% Never,100% Always,images\FOREHEAD_CFD_BF_214_308_N.png,0,0,0,0,1,34,129,8,,,,,,,,,,,,2023-04-07_19h45.18.188,FaceAttractiveness,2022.2.5,143.1733514428723,
treatment,0% Never,100% Always,images\ LIP_CFD_LF_224_176_N.png,0,0,0,0,1,35,130,50,,,,,,,,,,,,2023-04-07_19h45.18.188,FaceAttractiveness,2022.2.5,143.1733514428723,
treatment,0% Never,100% Always,images\FOREHEAD_006_M_F_N_A.png,0,0,0,0,1,36,131,0,,,,,,,,,,,,2023-04-07_19h45.18.188,FaceAttractiveness,2022.2.5,143.1733514428723,
treatment,0% Never,100% Always,images\ LCHEEK_CFD_WF_250_167_N.png,0,0,0,0,1,37,132,36,,,,,,,,,,,,2023-04-07_19h45.18.188,FaceAttractiveness,2022.2.5,143.1733514428723,
treatment,0% Never,100% Always,images\FOREHEAD_CFD_WF_200_099_N.png,0,0,0,0,1,38,133,16,,,,,,,,,,,,2023-04-07_19h45.18.188,FaceAttractiveness,2022.2.5,143.1733514428723,
treatment,0% Never,100% Always,images\ LCHEEK_006_M_F_N_A.png,0,0,0,0,1,39,134,19,,,,,,,,,,,,2023-04-07_19h45.18.188,FaceAttractiveness,2022.2.5,143.1733514428723,
treatment,0% Never,100% Always,images\FOREHEAD_CFD_LM_201_057_N.png,0,0,0,0,1,40,135,13,,,,,,,,,,,,2023-04-07_19h45.18.188,FaceAttractiveness,2022.2.5,143.1733514428723,
treatment,0% Never,100% Always,images\ LCHEEK_CFD_WF_200_099_N.png,0,0,0,0,1,41,136,35,,,,,,,,,,,,2023-04-07_19h45.18.188,FaceAttractiveness,2022.2.5,143.1733514428723,
treatment,0% Never,100% Always,images\ LIP_006_M_F_N_A.png,0,0,0,0,1,42,137,38,,,,,,,,,,,,2023-04-07_19h45.18.188,FaceAttractiveness,2022.2.5,143.1733514428723,
treatment,0% Never,100% Always,images\FOREHEAD_087_M_M_N_A.png,0,0,0,0,1,43,138,2,,,,,,,,,,,,2023-04-07_19h45.18.188,FaceAttractiveness,2022.2.5,143.1733514428723,
treatment,0% Never,100% Always,"images\ RCHEEK_CFD_WF_002_004_N.png
",0,0,0,0,1,44,139,91,,,,,,,,,,,,2023-04-07_19h45.18.188,FaceAttractiveness,2022.2.5,143.1733514428723,
treatment,0% Never,100% Always,images\ LIP_CFD_BF_214_308_N.png,0,0,0,0,1,45,140,46,,,,,,,,,,,,2023-04-07_19h45.18.188,FaceAttractiveness,2022.2.5,143.1733514428723,
treatment,0% Never,100% Always,images\ NASALTIP_006_M_F_N_A.png,0,0,0,0,1,46,141,57,,,,,,,,,,,,2023-04-07_19h45.18.188,FaceAttractiveness,2022.2.5,143.1733514428723,
treatment,0% Never,100% Always,images\FOREHEAD_CFD_WM_212_097_N.png,0,0,0,0,1,47,142,18,,,,,,,,,,,,2023-04-07_19h45.18.188,FaceAttractiveness,2022.2.5,143.1733514428723,
treatment,0% Never,100% Always,images\ LIP_CFD_AF_237_223_N.png,0,0,0,0,1,48,143,43,,,,,,,,,,,,2023-04-07_19h45.18.188,FaceAttractiveness,2022.2.5,143.1733514428723,
treatment,0% Never,100% Always,images\ LCHEEK_CFD_AF_237_223_N.png,0,0,0,0,1,49,144,24,,,,,,,,,,,,2023-04-07_19h45.18.188,FaceAttractiveness,2022.2.5,143.1733514428723,
treatment,0% Never,100% Always,images\ RCHEEK_087_M_M_N_A.png,0,0,0,0,1,50,145,78,,,,,,,,,,,,2023-04-07_19h45.18.188,FaceAttractiveness,2022.2.5,143.1733514428723,
treatment,0% Never,100% Always,images\ LCHEEK_035_M_F_N_A.png,0,0,0,0,1,51,146,20,,,,,,,,,,,,2023-04-07_19h45.18.188,FaceAttractiveness,2022.2.5,143.1733514428723,
treatment,0% Never,100% Always,images\ RCHEEK_006_M_F_N_A.png,0,0,0,0,1,52,147,76,,,,,,,,,,,,2023-04-07_19h45.18.188,FaceAttractiveness,2022.2.5,143.1733514428723,
treatment,0% Never,100% Always,images\ NASALTIP_CFD_AF_245_143_N.png,0,0,0,0,1,53,148,63,,,,,,,,,,,,2023-04-07_19h45.18.188,FaceAttractiveness,2022.2.5,143.1733514428723,
treatment,0% Never,100% Always,images\ NASALTIP_CFD_BM_213_134_N.png,0,0,0,0,1,54,149,67,,,,,,,,,,,,2023-04-07_19h45.18.188,FaceAttractiveness,2022.2.5,143.1733514428723,
treatment,0% Never,100% Always,images\ NASALTIP_035_M_F_N_A.png,0,0,0,0,1,55,150,58,,,,,,,,,,,,2023-04-07_19h45.18.188,FaceAttractiveness,2022.2.5,143.1733514428723,
treatment,0% Never,100% Always,images\ LCHEEK_CFD_WM_212_097_N.png,0,0,0,0,1,56,151,37,,,,,,,,,,,,2023-04-07_19h45.18.188,FaceAttractiveness,2022.2.5,143.1733514428723,
treatment,0% Never,100% Always,"images\ LCHEEK_136_M_M_N_A.png
",0,0,0,0,1,57,152,22,,,,,,,,,,,,2023-04-07_19h45.18.188,FaceAttractiveness,2022.2.5,143.1733514428723,
treatment,0% Never,100% Always,"images\ NASALTIP_136_M_M_N_A.png
",0,0,0,0,1,58,153,60,,,,,,,,,,,,2023-04-07_19h45.18.188,FaceAttractiveness,2022.2.5,143.1733514428723,
treatment,0% Never,100% Always,images\FOREHEAD_CFD_BM_234_172_N.png,0,0,0,0,1,59,154,11,,,,,,,,,,,,2023-04-07_19h45.18.188,FaceAttractiveness,2022.2.5,143.1733514428723,
treatment,0% Never,100% Always,"images\ LCHEEK_CFD_BM_234_172_N.png
",0,0,0,0,1,60,155,30,,,,,,,,,,,,2023-04-07_19h45.18.188,FaceAttractiveness,2022.2.5,143.1733514428723,
treatment,0% Never,100% Always,images\ LIP_CFD_WM_212_097_N.png,0,0,0,0,1,61,156,56,,,,,,,,,,,,2023-04-07_19h45.18.188,FaceAttractiveness,2022.2.5,143.1733514428723,
treatment,0% Never,100% Always,images\ NASALTIP_CFD_BF_214_308_N.png,0,0,0,0,1,62,157,65,,,,,,,,,,,,2023-04-07_19h45.18.188,FaceAttractiveness,2022.2.5,143.1733514428723,
treatment,0% Never,100% Always,images\ LIP_035_M_F_N_A.png,0,0,0,0,1,63,158,39,,,,,,,,,,,,2023-04-07_19h45.18.188,FaceAttractiveness,2022.2.5,143.1733514428723,
treatment,0% Never,100% Always,images\ LIP_CFD_LM_203_026_N.png,0,0,0,0,1,64,159,52,,,,,,,,,,,,2023-04-07_19h45.18.188,FaceAttractiveness,2022.2.5,143.1733514428723,
treatment,0% Never,100% Always,"images\ LIP_CFD_WF_002_004_N.png
",0,0,0,0,1,65,160,53,,,,,,,,,,,,2023-04-07_19h45.18.188,FaceAttractiveness,2022.2.5,143.1733514428723,
treatment,0% Never,100% Always,images\ LIP_CFD_BF_224_002_N.png,0,0,0,0,1,66,161,47,,,,,,,,,,,,2023-04-07_19h45.18.188,FaceAttractiveness,2022.2.5,143.1733514428723,
treatment,0% Never,100% Always,images\ NASALTIP_CFD_AF_231_357_N.png,0,0,0,0,1,67,162,61,,,,,,,,,,,,2023-04-07_19h45.18.188,FaceAttractiveness,2022.2.5,143.1733514428723,
treatment,0% Never,100% Always,images\ LIP_CFD_BM_213_134_N.png,0,0,0,0,1,68,163,48,,,,,,,,,,,,2023-04-07_19h45.18.188,FaceAttractiveness,2022.2.5,143.1733514428723,
treatment,0% Never,100% Always,images\FOREHEAD_035_M_F_N_A.png,0,0,0,0,1,69,164,1,,,,,,,,,,,,2023-04-07_19h45.18.188,FaceAttractiveness,2022.2.5,143.1733514428723,
treatment,0% Never,100% Always,images\FOREHEAD_CFD_LM_203_026_N.png,0,0,0,0,1,70,165,14,,,,,,,,,,,,2023-04-07_19h45.18.188,FaceAttractiveness,2022.2.5,143.1733514428723,
treatment,0% Never,100% Always,images\ LCHEEK_CFD_LM_203_026_N.png,0,0,0,0,1,71,166,33,,,,,,,,,,,,2023-04-07_19h45.18.188,FaceAttractiveness,2022.2.5,143.1733514428723,
treatment,0% Never,100% Always,images\ NASALTIP_CFD_LM_203_026_N.png,0,0,0,0,1,72,167,71,,,,,,,,,,,,2023-04-07_19h45.18.188,FaceAttractiveness,2022.2.5,143.1733514428723,
treatment,0% Never,100% Always,"images\ NASALTIP_CFD_AM_233_236_N.png
",0,0,0,0,1,73,168,64,,,,,,,,,,,,2023-04-07_19h45.18.188,FaceAttractiveness,2022.2.5,143.1733514428723,
treatment,0% Never,100% Always,images\ LIP_CFD_WF_200_099_N.png,0,0,0,0,1,74,169,54,,,,,,,,,,,,2023-04-07_19h45.18.188,FaceAttractiveness,2022.2.5,143.1733514428723,
treatment,0% Never,100% Always,images\FOREHEAD_136_M_M_N_A.png,0,0,0,0,1,75,170,3,,,,,,,,,,,,2023-04-07_19h45.18.188,FaceAttractiveness,2022.2.5,143.1733514428723,
treatment,0% Never,100% Always,images\ LCHEEK_CFD_AF_231_357_N.png,0,0,0,0,1,76,171,23,,,,,,,,,,,,2023-04-07_19h45.18.188,FaceAttractiveness,2022.2.5,143.1733514428723,
treatment,0% Never,100% Always,"images\ LIP_136_M_M_N_A.png
",0,0,0,0,1,77,172,41,,,,,,,,,,,,2023-04-07_19h45.18.188,FaceAttractiveness,2022.2.5,143.1733514428723,
treatment,0% Never,100% Always,images\ LCHEEK_CFD_BF_224_002_N.png,0,0,0,0,1,78,173,28,,,,,,,,,,,,2023-04-07_19h45.18.188,FaceAttractiveness,2022.2.5,143.1733514428723,
treatment,0% Never,100% Always,images\ RCHEEK_CFD_AF_231_357_N.png,0,0,0,0,1,79,174,80,,,,,,,,,,,,2023-04-07_19h45.18.188,FaceAttractiveness,2022.2.5,143.1733514428723,
treatment,0% Never,100% Always,images\FOREHEAD_CFD_AF_231_357_N.png,0,0,0,0,1,80,175,4,,,,,,,,,,,,2023-04-07_19h45.18.188,FaceAttractiveness,2022.2.5,143.1733514428723,
treatment,0% Never,100% Always,images\ LIP_CFD_WF_250_167_N.png,0,0,0,0,1,81,176,55,,,,,,,,,,,,2023-04-07_19h45.18.188,FaceAttractiveness,2022.2.5,143.1733514428723,
treatment,0% Never,100% Always,"images\ LIP_CFD_AM_233_236_N.png
",0,0,0,0,1,82,177,45,,,,,,,,,,,,2023-04-07_19h45.18.188,FaceAttractiveness,2022.2.5,143.1733514428723,
treatment,0% Never,100% Always,"images\ RCHEEK_CFD_AM_233_236_N.png
",0,0,0,0,1,83,178,83,,,,,,,,,,,,2023-04-07_19h45.18.188,FaceAttractiveness,2022.2.5,143.1733514428723,
treatment,0% Never,100% Always,"images\ LCHEEK_CFD_WF_002_004_N.png
",0,0,0,0,1,84,179,34,,,,,,,,,,,,2023-04-07_19h45.18.188,FaceAttractiveness,2022.2.5,143.1733514428723,
treatment,0% Never,100% Always,images\ LIP_CFD_AF_245_143_N.png,0,0,0,0,1,85,180,44,,,,,,,,,,,,2023-04-07_19h45.18.188,FaceAttractiveness,2022.2.5,143.1733514428723,
treatment,0% Never,100% Always,images\ NASALTIP_CFD_WF_200_099_N.png,0,0,0,0,1,86,181,73,,,,,,,,,,,,2023-04-07_19h45.18.188,FaceAttractiveness,2022.2.5,143.1733514428723,
treatment,0% Never,100% Always,images\ LCHEEK_087_M_M_N_A.png,0,0,0,0,1,87,182,21,,,,,,,,,,,,2023-04-07_19h45.18.188,FaceAttractiveness,2022.2.5,143.1733514428723,
treatment,0% Never,100% Always,images\FOREHEAD_CFD_AM_233_236_N.png,0,0,0,0,1,88,183,7,,,,,,,,,,,,2023-04-07_19h45.18.188,FaceAttractiveness,2022.2.5,143.1733514428723,
treatment,0% Never,100% Always,images\ LIP_CFD_AF_231_357_N.png,0,0,0,0,1,89,184,42,,,,,,,,,,,,2023-04-07_19h45.18.188,FaceAttractiveness,2022.2.5,143.1733514428723,
treatment,0% Never,100% Always,images\ NASALTIP_CFD_WF_250_167_N.png,0,0,0,0,1,90,185,74,,,,,,,,,,,,2023-04-07_19h45.18.188,FaceAttractiveness,2022.2.5,143.1733514428723,
treatment,0% Never,100% Always,images\ LCHEEK_CFD_BM_213_134_N.png,0,0,0,0,1,91,186,29,,,,,,,,,,,,2023-04-07_19h45.18.188,FaceAttractiveness,2022.2.5,143.1733514428723,
treatment,0% Never,100% Always,images\ LCHEEK_CFD_BF_214_308_N.png,0,0,0,0,1,92,187,27,,,,,,,,,,,,2023-04-07_19h45.18.188,FaceAttractiveness,2022.2.5,143.1733514428723,
treatment,0% Never,100% Always,images\ NASALTIP_CFD_WM_212_097_N.png,0,0,0,0,1,93,188,75,,,,,,,,,,,,2023-04-07_19h45.18.188,FaceAttractiveness,2022.2.5,143.1733514428723,
treatment,0% Never,100% Always,images\ NASALTIP_CFD_LF_224_176_N.png,0,0,0,0,1,94,189,69,,,,,,,,,,,,2023-04-07_19h45.18.188,FaceAttractiveness,2022.2.5,143.1733514428723,
treatment,0% Never,100% Always,images\ RCHEEK_087_M_M_N_A.png,0,0,0,0,2,0,190,78,,,,,,,,,,,,2023-04-07_19h45.18.188,FaceAttractiveness,2022.2.5,143.1733514428723,
treatment,0% Never,100% Always,images\ NASALTIP_CFD_BF_214_308_N.png,0,0,0,0,2,1,191,65,,,,,,,,,,,,2023-04-07_19h45.18.188,FaceAttractiveness,2022.2.5,143.1733514428723,
treatment,0% Never,100% Always,images\ LCHEEK_006_M_F_N_A.png,0,0,0,0,2,2,192,19,,,,,,,,,,,,2023-04-07_19h45.18.188,FaceAttractiveness,2022.2.5,143.1733514428723,
treatment,0% Never,100% Always,images\ LCHEEK_CFD_WF_200_099_N.png,0,0,0,0,2,3,193,35,,,,,,,,,,,,2023-04-07_19h45.18.188,FaceAttractiveness,2022.2.5,143.1733514428723,
treatment,0% Never,100% Always,images\ NASALTIP_CFD_AF_237_223_N.png,0,0,0,0,2,4,194,62,,,,,,,,,,,,2023-04-07_19h45.18.188,FaceAttractiveness,2022.2.5,143.1733514428723,
treatment,0% Never,100% Always,images\ RCHEEK_CFD_WM_212_097_N.png,0,0,0,0,2,5,195,94,,,,,,,,,,,,2023-04-07_19h45.18.188,FaceAttractiveness,2022.2.5,143.1733514428723,
treatment,0% Never,100% Always,"images\ LCHEEK_CFD_AM_233_236_N.png
",0,0,0,0,2,6,196,26,,,,,,,,,,,,2023-04-07_19h45.18.188,FaceAttractiveness,2022.2.5,143.1733514428723,
treatment,0% Never,100% Always,images\ LIP_CFD_LM_201_057_N.png,0,0,0,0,2,7,197,51,,,,,,,,,,,,2023-04-07_19h45.18.188,FaceAttractiveness,2022.2.5,143.1733514428723,
treatment,0% Never,100% Always,images\FOREHEAD_CFD_AF_245_143_N.png,0,0,0,0,2,8,198,6,,,,,,,,,,,,2023-04-07_19h45.18.188,FaceAttractiveness,2022.2.5,143.1733514428723,
treatment,0% Never,100% Always,images\FOREHEAD_035_M_F_N_A.png,0,0,0,0,2,9,199,1,,,,,,,,,,,,2023-04-07_19h45.18.188,FaceAttractiveness,2022.2.5,143.1733514428723,
treatment,0% Never,100% Always,images\ LCHEEK_CFD_WM_212_097_N.png,0,0,0,0,2,10,200,37,,,,,,,,,,,,2023-04-07_19h45.18.188,FaceAttractiveness,2022.2.5,143.1733514428723,
treatment,0% Never,100% Always,images\ LCHEEK_CFD_AF_231_357_N.png,0,0,0,0,2,11,201,23,,,,,,,,,,,,2023-04-07_19h45.18.188,FaceAttractiveness,2022.2.5,143.1733514428723,
treatment,0% Never,100% Always,images\FOREHEAD_087_M_M_N_A.png,0,0,0,0,2,12,202,2,,,,,,,,,,,,2023-04-07_19h45.18.188,FaceAttractiveness,2022.2.5,143.1733514428723,
treatment,0% Never,100% Always,images\FOREHEAD_CFD_LF_224_176_N.png,0,0,0,0,2,13,203,12,,,,,,,,,,,,2023-04-07_19h45.18.188,FaceAttractiveness,2022.2.5,143.1733514428723,
treatment,0% Never,100% Always,images\ RCHEEK_CFD_LM_203_026_N.png,0,0,0,0,2,14,204,90,,,,,,,,,,,,2023-04-07_19h45.18.188,FaceAttractiveness,2022.2.5,143.1733514428723,
treatment,0% Never,100% Always,images\FOREHEAD_CFD_WF_250_167_N.png,0,0,0,0,2,15,205,17,,,,,,,,,,,,2023-04-07_19h45.18.188,FaceAttractiveness,2022.2.5,143.1733514428723,
treatment,0% Never,100% Always,images\FOREHEAD_CFD_LM_203_026_N.png,0,0,0,0,2,16,206,14,,,,,,,,,,,,2023-04-07_19h45.18.188,FaceAttractiveness,2022.2.5,143.1733514428723,
treatment,0% Never,100% Always,images\ NASALTIP_CFD_LF_224_176_N.png,0,0,0,0,2,17,207,69,,,,,,,,,,,,2023-04-07_19h45.18.188,FaceAttractiveness,2022.2.5,143.1733514428723,
treatment,0% Never,100% Always,images\ LIP_CFD_LF_224_176_N.png,0,0,0,0,2,18,208,50,,,,,,,,,,,,2023-04-07_19h45.18.188,FaceAttractiveness,2022.2.5,143.1733514428723,
treatment,0% Never,100% Always,images\ LCHEEK_CFD_AF_245_143_N.png,0,0,0,0,2,19,209,25,,,,,,,,,,,,2023-04-07_19h45.18.188,FaceAttractiveness,2022.2.5,143.1733514428723,
treatment,0% Never,100% Always,images\ LIP_CFD_LM_203_026_N.png,0,0,0,0,2,20,210,52,,,,,,,,,,,,2023-04-07_19h45.18.188,FaceAttractiveness,2022.2.5,143.1733514428723,
treatment,0% Never,100% Always,images\ LIP_CFD_AF_245_143_N.png,0,0,0,0,2,21,211,44,,,,,,,,,,,,2023-04-07_19h45.18.188,FaceAttractiveness,2022.2.5,143.1733514428723,
treatment,0% Never,100% Always,images\ NASALTIP_CFD_BF_224_002_N.png,0,0,0,0,2,22,212,66,,,,,,,,,,,,2023-04-07_19h45.18.188,FaceAttractiveness,2022.2.5,143.1733514428723,
treatment,0% Never,100% Always,images\ LIP_CFD_WF_250_167_N.png,0,0,0,0,2,23,213,55,,,,,,,,,,,,2023-04-07_19h45.18.188,FaceAttractiveness,2022.2.5,143.1733514428723,
treatment,0% Never,100% Always,images\ LCHEEK_CFD_BF_214_308_N.png,0,0,0,0,2,24,214,27,,,,,,,,,,,,2023-04-07_19h45.18.188,FaceAttractiveness,2022.2.5,143.1733514428723,
treatment,0% Never,100% Always,images\ NASALTIP_CFD_LM_201_057_N.png,0,0,0,0,2,25,215,70,,,,,,,,,,,,2023-04-07_19h45.18.188,FaceAttractiveness,2022.2.5,143.1733514428723,
treatment,0% Never,100% Always,images\ LIP_CFD_BF_224_002_N.png,0,0,0,0,2,26,216,47,,,,,,,,,,,,2023-04-07_19h45.18.188,FaceAttractiveness,2022.2.5,143.1733514428723,
treatment,0% Never,100% Always,images\FOREHEAD_CFD_WF_002_004_N.png,0,0,0,0,2,27,217,15,,,,,,,,,,,,2023-04-07_19h45.18.188,FaceAttractiveness,2022.2.5,143.1733514428723,
treatment,0% Never,100% Always,images\ LIP_087_M_M_N_A.png,0,0,0,0,2,28,218,40,,,,,,,,,,,,2023-04-07_19h45.18.188,FaceAttractiveness,2022.2.5,143.1733514428723,
treatment,0% Never,100% Always,images\ LCHEEK_CFD_WF_250_167_N.png,0,0,0,0,2,29,219,36,,,,,,,,,,,,2023-04-07_19h45.18.188,FaceAttractiveness,2022.2.5,143.1733514428723,
treatment,0% Never,100% Always,images\ NASALTIP_006_M_F_N_A.png,0,0,0,0,2,30,220,57,,,,,,,,,,,,2023-04-07_19h45.18.188,FaceAttractiveness,2022.2.5,143.1733514428723,
treatment,0% Never,100% Always,images\ LCHEEK_CFD_LM_203_026_N.png,0,0,0,0,2,31,221,33,,,,,,,,,,,,2023-04-07_19h45.18.188,FaceAttractiveness,2022.2.5,143.1733514428723,
treatment,0% Never,100% Always,"images\ RCHEEK_136_M_M_N_A.png
",0,0,0,0,2,32,222,79,,,,,,,,,,,,2023-04-07_19h45.18.188,FaceAttractiveness,2022.2.5,143.1733514428723,
treatment,0% Never,100% Always,images\ NASALTIP_CFD_BM_213_134_N.png,0,0,0,0,2,33,223,67,,,,,,,,,,,,2023-04-07_19h45.18.188,FaceAttractiveness,2022.2.5,143.1733514428723,
treatment,0% Never,100% Always,"images\ NASALTIP_CFD_BM_234_172_N.png
",0,0,0,0,2,34,224,68,,,,,,,,,,,,2023-04-07_19h45.18.188,FaceAttractiveness,2022.2.5,143.1733514428723,
treatment,0% Never,100% Always,images\ NASALTIP_CFD_WF_250_167_N.png,0,0,0,0,2,35,225,74,,,,,,,,,,,,2023-04-07_19h45.18.188,FaceAttractiveness,2022.2.5,143.1733514428723,
treatment,0% Never,100% Always,images\ LIP_CFD_BM_213_134_N.png,0,0,0,0,2,36,226,48,,,,,,,,,,,,2023-04-07_19h45.18.188,FaceAttractiveness,2022.2.5,143.1733514428723,
treatment,0% Never,100% Always,images\FOREHEAD_CFD_AF_231_357_N.png,0,0,0,0,2,37,227,4,,,,,,,,,,,,2023-04-07_19h45.18.188,FaceAttractiveness,2022.2.5,143.1733514428723,
treatment,0% Never,100% Always,"images\ LIP_136_M_M_N_A.png
",0,0,0,0,2,38,228,41,,,,,,,,,,,,2023-04-07_19h45.18.188,FaceAttractiveness,2022.2.5,143.1733514428723,
treatment,0% Never,100% Always,images\ RCHEEK_CFD_WF_250_167_N.png,0,0,0,0,2,39,229,93,,,,,,,,,,,,2023-04-07_19h45.18.188,FaceAttractiveness,2022.2.5,143.1733514428723,
treatment,0% Never,100% Always,images\FOREHEAD_CFD_BM_234_172_N.png,0,0,0,0,2,40,230,11,,,,,,,,,,,,2023-04-07_19h45.18.188,FaceAttractiveness,2022.2.5,143.1733514428723,
treatment,0% Never,100% Always,images\FOREHEAD_CFD_AM_233_236_N.png,0,0,0,0,2,41,231,7,,,,,,,,,,,,2023-04-07_19h45.18.188,FaceAttractiveness,2022.2.5,143.1733514428723,
treatment,0% Never,100% Always,images\FOREHEAD_CFD_BF_214_308_N.png,0,0,0,0,2,42,232,8,,,,,,,,,,,,2023-04-07_19h45.18.188,FaceAttractiveness,2022.2.5,143.1733514428723,
treatment,0% Never,100% Always,images\ RCHEEK_CFD_BF_224_002_N.png,0,0,0,0,2,43,233,85,,,,,,,,,,,,2023-04-07_19h45.18.188,FaceAttractiveness,2022.2.5,143.1733514428723,
treatment,0% Never,100% Always,images\ LCHEEK_CFD_BF_224_002_N.png,0,0,0,0,2,44,234,28,,,,,,,,,,,,2023-04-07_19h45.18.188,FaceAttractiveness,2022.2.5,143.1733514428723,
treatment,0% Never,100% Always,images\ LIP_035_M_F_N_A.png,0,0,0,0,2,45,235,39,,,,,,,,,,,,2023-04-07_19h45.18.188,FaceAttractiveness,2022.2.5,143.1733514428723,
treatment,0% Never,100% Always,images\ LIP_CFD_BF_214_308_N.png,0,0,0,0,2,46,236,46,,,,,,,,,,,,2023-04-07_19h45.18.188,FaceAttractiveness,2022.2.5,143.1733514428723,
treatment,0% Never,100% Always,images\ NASALTIP_CFD_AF_245_143_N.png,0,0,0,0,2,47,237,63,,,,,,,,,,,,2023-04-07_19h45.18.188,FaceAttractiveness,2022.2.5,143.1733514428723,
treatment,0% Never,100% Always,"images\ LIP_CFD_BM_234_172_N.png
",0,0,0,0,2,48,238,49,,,,,,,,,,,,2023-04-07_19h45.18.188,FaceAttractiveness,2022.2.5,143.1733514428723,
treatment,0% Never,100% Always,images\ LCHEEK_087_M_M_N_A.png,0,0,0,0,2,49,239,21,,,,,,,,,,,,2023-04-07_19h45.18.188,FaceAttractiveness,2022.2.5,143.1733514428723,
treatment,0% Never,100% Always,"images\ LCHEEK_CFD_WF_002_004_N.png
",0,0,0,0,2,50,240,34,,,,,,,,,,,,2023-04-07_19h45.18.188,FaceAttractiveness,2022.2.5,143.1733514428723,
treatment,0% Never,100% Always,images\ LIP_CFD_AF_237_223_N.png,0,0,0,0,2,51,241,43,,,,,,,,,,,,2023-04-07_19h45.18.188,FaceAttractiveness,2022.2.5,143.1733514428723,
treatment,0% Never,100% Always,images\ RCHEEK_CFD_WF_200_099_N.png,0,0,0,0,2,52,242,92,,,,,,,,,,,,2023-04-07_19h45.18.188,FaceAttractiveness,2022.2.5,143.1733514428723,
treatment,0% Never,100% Always,"images\ RCHEEK_CFD_AM_233_236_N.png
",0,0,0,0,2,53,243,83,,,,,,,,,,,,2023-04-07_19h45.18.188,FaceAttractiveness,2022.2.5,143.1733514428723,
treatment,0% Never,100% Always,images\ RCHEEK_006_M_F_N_A.png,0,0,0,0,2,54,244,76,,,,,,,,,,,,2023-04-07_19h45.18.188,FaceAttractiveness,2022.2.5,143.1733514428723,
treatment,0% Never,100% Always,images\FOREHEAD_CFD_WM_212_097_N.png,0,0,0,0,2,55,245,18,,,,,,,,,,,,2023-04-07_19h45.18.188,FaceAttractiveness,2022.2.5,143.1733514428723,
treatment,0% Never,100% Always,images\FOREHEAD_CFD_AF_237_223_N.png,0,0,0,0,2,56,246,5,,,,,,,,,,,,2023-04-07_19h45.18.188,FaceAttractiveness,2022.2.5,143.1733514428723,
treatment,0% Never,100% Always,images\ LCHEEK_CFD_BM_213_134_N.png,0,0,0,0,2,57,247,29,,,,,,,,,,,,2023-04-07_19h45.18.188,FaceAttractiveness,2022.2.5,143.1733514428723,
treatment,0% Never,100% Always,"images\ LIP_CFD_WF_002_004_N.png
",0,0,0,0,2,58,248,53,,,,,,,,,,,,2023-04-07_19h45.18.188,FaceAttractiveness,2022.2.5,143.1733514428723,
treatment,0% Never,100% Always,images\FOREHEAD_CFD_LM_201_057_N.png,0,0,0,0,2,59,249,13,,,,,,,,,,,,2023-04-07_19h45.18.188,FaceAttractiveness,2022.2.5,143.1733514428723,
treatment,0% Never,100% Always,images\FOREHEAD_136_M_M_N_A.png,0,0,0,0,2,60,250,3,,,,,,,,,,,,2023-04-07_19h45.18.188,FaceAttractiveness,2022.2.5,143.1733514428723,
treatment,0% Never,100% Always,images\FOREHEAD_CFD_BM_213_134_N.png,0,0,0,0,2,61,251,10,,,,,,,,,,,,2023-04-07_19h45.18.188,FaceAttractiveness,2022.2.5,143.1733514428723,
treatment,0% Never,100% Always,images\ LIP_CFD_AF_231_357_N.png,0,0,0,0,2,62,252,42,,,,,,,,,,,,2023-04-07_19h45.18.188,FaceAttractiveness,2022.2.5,143.1733514428723,
treatment,0% Never,100% Always,images\ NASALTIP_035_M_F_N_A.png,0,0,0,0,2,63,253,58,,,,,,,,,,,,2023-04-07_19h45.18.188,FaceAttractiveness,2022.2.5,143.1733514428723,
treatment,0% Never,100% Always,images\ RCHEEK_CFD_BF_214_308_N.png,0,0,0,0,2,64,254,84,,,,,,,,,,,,2023-04-07_19h45.18.188,FaceAttractiveness,2022.2.5,143.1733514428723,
treatment,0% Never,100% Always,"images\ LCHEEK_136_M_M_N_A.png
",0,0,0,0,2,65,255,22,,,,,,,,,,,,2023-04-07_19h45.18.188,FaceAttractiveness,2022.2.5,143.1733514428723,
treatment,0% Never,100% Always,images\ RCHEEK_CFD_AF_245_143_N.png,0,0,0,0,2,66,256,82,,,,,,,,,,,,2023-04-07_19h45.18.188,FaceAttractiveness,2022.2.5,143.1733514428723,
treatment,0% Never,100% Always,images\ NASALTIP_087_M_M_N_A.png,0,0,0,0,2,67,257,59,,,,,,,,,,,,2023-04-07_19h45.18.188,FaceAttractiveness,2022.2.5,143.1733514428723,
treatment,0% Never,100% Always,"images\ RCHEEK_CFD_BM_234_172_N.png
",0,0,0,0,2,68,258,87,,,,,,,,,,,,2023-04-07_19h45.18.188,FaceAttractiveness,2022.2.5,143.1733514428723,
treatment,0% Never,100% Always,images\ RCHEEK_CFD_LM_201_057_N.png,0,0,0,0,2,69,259,89,,,,,,,,,,,,2023-04-07_19h45.18.188,FaceAttractiveness,2022.2.5,143.1733514428723,
treatment,0% Never,100% Always,"images\ NASALTIP_136_M_M_N_A.png
",0,0,0,0,2,70,260,60,,,,,,,,,,,,2023-04-07_19h45.18.188,FaceAttractiveness,2022.2.5,143.1733514428723,
treatment,0% Never,100% Always,images\ LIP_CFD_WF_200_099_N.png,0,0,0,0,2,71,261,54,,,,,,,,,,,,2023-04-07_19h45.18.188,FaceAttractiveness,2022.2.5,143.1733514428723,
treatment,0% Never,100% Always,images\ LCHEEK_CFD_AF_237_223_N.png,0,0,0,0,2,72,262,24,,,,,,,,,,,,2023-04-07_19h45.18.188,FaceAttractiveness,2022.2.5,143.1733514428723,
treatment,0% Never,100% Always,"images\ RCHEEK_CFD_WF_002_004_N.png
",0,0,0,0,2,73,263,91,,,,,,,,,,,,2023-04-07_19h45.18.188,FaceAttractiveness,2022.2.5,143.1733514428723,
treatment,0% Never,100% Always,"images\ LIP_CFD_AM_233_236_N.png
",0,0,0,0,2,74,264,45,,,,,,,,,,,,2023-04-07_19h45.18.188,FaceAttractiveness,2022.2.5,143.1733514428723,
treatment,0% Never,100% Always,images\ LIP_006_M_F_N_A.png,0,0,0,0,2,75,265,38,,,,,,,,,,,,2023-04-07_19h45.18.188,FaceAttractiveness,2022.2.5,143.1733514428723,
treatment,0% Never,100% Always,images\ RCHEEK_CFD_AF_237_223_N.png,0,0,0,0,2,76,266,81,,,,,,,,,,,,2023-04-07_19h45.18.188,FaceAttractiveness,2022.2.5,143.1733514428723,
treatment,0% Never,100% Always,images\ RCHEEK_CFD_BM_213_134_N.png,0,0,0,0,2,77,267,86,,,,,,,,,,,,2023-04-07_19h45.18.188,FaceAttractiveness,2022.2.5,143.1733514428723,
treatment,0% Never,100% Always,images\ LCHEEK_035_M_F_N_A.png,0,0,0,0,2,78,268,20,,,,,,,,,,,,2023-04-07_19h45.18.188,FaceAttractiveness,2022.2.5,143.1733514428723,
treatment,0% Never,100% Always,"images\ NASALTIP_CFD_WF_002_004_N.png
",0,0,0,0,2,79,269,72,,,,,,,,,,,,2023-04-07_19h45.18.188,FaceAttractiveness,2022.2.5,143.1733514428723,
treatment,0% Never,100% Always,images\FOREHEAD_CFD_BF_224_002_N.png,0,0,0,0,2,80,270,9,,,,,,,,,,,,2023-04-07_19h45.18.188,FaceAttractiveness,2022.2.5,143.1733514428723,
treatment,0% Never,100% Always,"images\ LCHEEK_CFD_BM_234_172_N.png
",0,0,0,0,2,81,271,30,,,,,,,,,,,,2023-04-07_19h45.18.188,FaceAttractiveness,2022.2.5,143.1733514428723,
treatment,0% Never,100% Always,images\ LIP_CFD_WM_212_097_N.png,0,0,0,0,2,82,272,56,,,,,,,,,,,,2023-04-07_19h45.18.188,FaceAttractiveness,2022.2.5,143.1733514428723,
treatment,0% Never,100% Always,images\ NASALTIP_CFD_LM_203_026_N.png,0,0,0,0,2,83,273,71,,,,,,,,,,,,2023-04-07_19h45.18.188,FaceAttractiveness,2022.2.5,143.1733514428723,
treatment,0% Never,100% Always,images\ NASALTIP_CFD_WF_200_099_N.png,0,0,0,0,2,84,274,73,,,,,,,,,,,,2023-04-07_19h45.18.188,FaceAttractiveness,2022.2.5,143.1733514428723,
treatment,0% Never,100% Always,images\ LCHEEK_CFD_LM_201_057_N.png,0,0,0,0,2,85,275,32,,,,,,,,,,,,2023-04-07_19h45.18.188,FaceAttractiveness,2022.2.5,143.1733514428723,
treatment,0% Never,100% Always,images\ RCHEEK_CFD_LF_224_176_N.png,0,0,0,0,2,86,276,88,,,,,,,,,,,,2023-04-07_19h45.18.188,FaceAttractiveness,2022.2.5,143.1733514428723,
treatment,0% Never,100% Always,images\FOREHEAD_006_M_F_N_A.png,0,0,0,0,2,87,277,0,,,,,,,,,,,,2023-04-07_19h45.18.188,FaceAttractiveness,2022.2.5,143.1733514428723,
treatment,0% Never,100% Always,images\ RCHEEK_035_M_F_N_A.png,0,0,0,0,2,88,278,77,,,,,,,,,,,,2023-04-07_19h45.18.188,FaceAttractiveness,2022.2.5,143.1733514428723,
treatment,0% Never,100% Always,images\ RCHEEK_CFD_AF_231_357_N.png,0,0,0,0,2,89,279,80,,,,,,,,,,,,2023-04-07_19h45.18.188,FaceAttractiveness,2022.2.5,143.1733514428723,
treatment,0% Never,100% Always,"images\ NASALTIP_CFD_AM_233_236_N.png
",0,0,0,0,2,90,280,64,,,,,,,,,,,,2023-04-07_19h45.18.188,FaceAttractiveness,2022.2.5,143.1733514428723,
treatment,0% Never,100% Always,images\ NASALTIP_CFD_AF_231_357_N.png,0,0,0,0,2,91,281,61,,,,,,,,,,,,2023-04-07_19h45.18.188,FaceAttractiveness,2022.2.5,143.1733514428723,
treatment,0% Never,100% Always,images\ LCHEEK_CFD_LF_224_176_N.png,0,0,0,0,2,92,282,31,,,,,,,,,,,,2023-04-07_19h45.18.188,FaceAttractiveness,2022.2.5,143.1733514428723,
treatment,0% Never,100% Always,images\FOREHEAD_CFD_WF_200_099_N.png,0,0,0,0,2,93,283,16,,,,,,,,,,,,2023-04-07_19h45.18.188,FaceAttractiveness,2022.2.5,143.1733514428723,
treatment,0% Never,100% Always,images\ NASALTIP_CFD_WM_212_097_N.png,0,0,0,0,2,94,284,75,,,,,,,,,,,,2023-04-07_19h45.18.188,FaceAttractiveness,2022.2.5,143.1733514428723,
treatment,0% Never,100% Always,images\ LCHEEK_CFD_AF_231_357_N.png,0,0,0,0,3,0,285,23,,,,,,,,,,,,2023-04-07_19h45.18.188,FaceAttractiveness,2022.2.5,143.1733514428723,
treatment,0% Never,100% Always,"images\ LCHEEK_136_M_M_N_A.png
",0,0,0,0,3,1,286,22,,,,,,,,,,,,2023-04-07_19h45.18.188,FaceAttractiveness,2022.2.5,143.1733514428723,
treatment,0% Never,100% Always,images\FOREHEAD_CFD_WF_200_099_N.png,0,0,0,0,3,2,287,16,,,,,,,,,,,,2023-04-07_19h45.18.188,FaceAttractiveness,2022.2.5,143.1733514428723,
treatment,0% Never,100% Always,images\ LCHEEK_CFD_LF_224_176_N.png,0,0,0,0,3,3,288,31,,,,,,,,,,,,2023-04-07_19h45.18.188,FaceAttractiveness,2022.2.5,143.1733514428723,
treatment,0% Never,100% Always,images\ RCHEEK_CFD_BM_213_134_N.png,0,0,0,0,3,4,289,86,,,,,,,,,,,,2023-04-07_19h45.18.188,FaceAttractiveness,2022.2.5,143.1733514428723,
treatment,0% Never,100% Always,"images\ RCHEEK_CFD_WF_002_004_N.png
",0,0,0,0,3,5,290,91,,,,,,,,,,,,2023-04-07_19h45.18.188,FaceAttractiveness,2022.2.5,143.1733514428723,
treatment,0% Never,100% Always,images\ NASALTIP_CFD_BF_224_002_N.png,0,0,0,0,3,6,291,66,,,,,,,,,,,,2023-04-07_19h45.18.188,FaceAttractiveness,2022.2.5,143.1733514428723,
treatment,0% Never,100% Always,images\ RCHEEK_087_M_M_N_A.png,0,0,0,0,3,7,292,78,,,,,,,,,,,,2023-04-07_19h45.18.188,FaceAttractiveness,2022.2.5,143.1733514428723,
treatment,0% Never,100% Always,"images\ RCHEEK_136_M_M_N_A.png
",0,0,0,0,3,8,293,79,,,,,,,,,,,,2023-04-07_19h45.18.188,FaceAttractiveness,2022.2.5,143.1733514428723,
treatment,0% Never,100% Always,images\ RCHEEK_CFD_WM_212_097_N.png,0,0,0,0,3,9,294,94,,,,,,,,,,,,2023-04-07_19h45.18.188,FaceAttractiveness,2022.2.5,143.1733514428723,
treatment,0% Never,100% Always,"images\ LIP_CFD_WF_002_004_N.png
",0,0,0,0,3,10,295,53,,,,,,,,,,,,2023-04-07_19h45.18.188,FaceAttractiveness,2022.2.5,143.1733514428723,
treatment,0% Never,100% Always,"images\ LCHEEK_CFD_WF_002_004_N.png
",0,0,0,0,3,11,296,34,,,,,,,,,,,,2023-04-07_19h45.18.188,FaceAttractiveness,2022.2.5,143.1733514428723,
treatment,0% Never,100% Always,images\ LIP_CFD_AF_237_223_N.png,0,0,0,0,3,12,297,43,,,,,,,,,,,,2023-04-07_19h45.18.188,FaceAttractiveness,2022.2.5,143.1733514428723,
treatment,0% Never,100% Always,images\ LIP_006_M_F_N_A.png,0,0,0,0,3,13,298,38,,,,,,,,,,,,2023-04-07_19h45.18.188,FaceAttractiveness,2022.2.5,143.1733514428723,
treatment,0% Never,100% Always,images\ LIP_CFD_WF_250_167_N.png,0,0,0,0,3,14,299,55,,,,,,,,,,,,2023-04-07_19h45.18.188,FaceAttractiveness,2022.2.5,143.1733514428723,
treatment,0% Never,100% Always,images\ RCHEEK_CFD_LM_201_057_N.png,0,0,0,0,3,15,300,89,,,,,,,,,,,,2023-04-07_19h45.18.188,FaceAttractiveness,2022.2.5,143.1733514428723,
treatment,0% Never,100% Always,images\FOREHEAD_CFD_AF_231_357_N.png,0,0,0,0,3,16,301,4,,,,,,,,,,,,2023-04-07_19h45.18.188,FaceAttractiveness,2022.2.5,143.1733514428723,
treatment,0% Never,100% Always,images\ LCHEEK_CFD_BF_224_002_N.png,0,0,0,0,3,17,302,28,,,,,,,,,,,,2023-04-07_19h45.18.188,FaceAttractiveness,2022.2.5,143.1733514428723,
treatment,0% Never,100% Always,images\FOREHEAD_CFD_AF_237_223_N.png,0,0,0,0,3,18,303,5,,,,,,,,,,,,2023-04-07_19h45.18.188,FaceAttractiveness,2022.2.5,143.1733514428723,
treatment,0% Never,100% Always,images\ LIP_CFD_AF_231_357_N.png,0,0,0,0,3,19,304,42,,,,,,,,,,,,2023-04-07_19h45.18.188,FaceAttractiveness,2022.2.5,143.1733514428723,
treatment,0% Never,100% Always,images\ LIP_CFD_BF_224_002_N.png,0,0,0,0,3,20,305,47,,,,,,,,,,,,2023-04-07_19h45.18.188,FaceAttractiveness,2022.2.5,143.1733514428723,
treatment,0% Never,100% Always,images\ RCHEEK_CFD_AF_245_143_N.png,0,0,0,0,3,21,306,82,,,,,,,,,,,,2023-04-07_19h45.18.188,FaceAttractiveness,2022.2.5,143.1733514428723,
treatment,0% Never,100% Always,images\ LCHEEK_CFD_BM_213_134_N.png,0,0,0,0,3,22,307,29,,,,,,,,,,,,2023-04-07_19h45.18.188,FaceAttractiveness,2022.2.5,143.1733514428723,
treatment,0% Never,100% Always,images\ RCHEEK_006_M_F_N_A.png,0,0,0,0,3,23,308,76,,,,,,,,,,,,2023-04-07_19h45.18.188,FaceAttractiveness,2022.2.5,143.1733514428723,
treatment,0% Never,100% Always,images\ NASALTIP_087_M_M_N_A.png,0,0,0,0,3,24,309,59,,,,,,,,,,,,2023-04-07_19h45.18.188,FaceAttractiveness,2022.2.5,143.1733514428723,
treatment,0% Never,100% Always,images\ NASALTIP_CFD_LM_203_026_N.png,0,0,0,0,3,25,310,71,,,,,,,,,,,,2023-04-07_19h45.18.188,FaceAttractiveness,2022.2.5,143.1733514428723,
treatment,0% Never,100% Always,images\ NASALTIP_CFD_LM_201_057_N.png,0,0,0,0,3,26,311,70,,,,,,,,,,,,2023-04-07_19h45.18.188,FaceAttractiveness,2022.2.5,143.1733514428723,
treatment,0% Never,100% Always,images\ NASALTIP_CFD_WF_250_167_N.png,0,0,0,0,3,27,312,74,,,,,,,,,,,,2023-04-07_19h45.18.188,FaceAttractiveness,2022.2.5,143.1733514428723,
treatment,0% Never,100% Always,images\ LCHEEK_CFD_BF_214_308_N.png,0,0,0,0,3,28,313,27,,,,,,,,,,,,2023-04-07_19h45.18.188,FaceAttractiveness,2022.2.5,143.1733514428723,
treatment,0% Never,100% Always,images\ NASALTIP_CFD_AF_231_357_N.png,0,0,0,0,3,29,314,61,,,,,,,,,,,,2023-04-07_19h45.18.188,FaceAttractiveness,2022.2.5,143.1733514428723,
treatment,0% Never,100% Always,images\ LCHEEK_CFD_AF_237_223_N.png,0,0,0,0,3,30,315,24,,,,,,,,,,,,2023-04-07_19h45.18.188,FaceAttractiveness,2022.2.5,143.1733514428723,
treatment,0% Never,100% Always,"images\ LCHEEK_CFD_AM_233_236_N.png
",0,0,0,0,3,31,316,26,,,,,,,,,,,,2023-04-07_19h45.18.188,FaceAttractiveness,2022.2.5,143.1733514428723,
treatment,0% Never,100% Always,images\FOREHEAD_CFD_WM_212_097_N.png,0,0,0,0,3,32,317,18,,,,,,,,,,,,2023-04-07_19h45.18.188,FaceAttractiveness,2022.2.5,143.1733514428723,
treatment,0% Never,100% Always,images\ LCHEEK_CFD_AF_245_143_N.png,0,0,0,0,3,33,318,25,,,,,,,,,,,,2023-04-07_19h45.18.188,FaceAttractiveness,2022.2.5,143.1733514428723,
treatment,0% Never,100% Always,"images\ NASALTIP_136_M_M_N_A.png
",0,0,0,0,3,34,319,60,,,,,,,,,,,,2023-04-07_19h45.18.188,FaceAttractiveness,2022.2.5,143.1733514428723,
treatment,0% Never,100% Always,images\FOREHEAD_136_M_M_N_A.png,0,0,0,0,3,35,320,3,,,,,,,,,,,,2023-04-07_19h45.18.188,FaceAttractiveness,2022.2.5,143.1733514428723,
treatment,0% Never,100% Always,images\FOREHEAD_CFD_LM_203_026_N.png,0,0,0,0,3,36,321,14,,,,,,,,,,,,2023-04-07_19h45.18.188,FaceAttractiveness,2022.2.5,143.1733514428723,
treatment,0% Never,100% Always,"images\ RCHEEK_CFD_AM_233_236_N.png
",0,0,0,0,3,37,322,83,,,,,,,,,,,,2023-04-07_19h45.18.188,FaceAttractiveness,2022.2.5,143.1733514428723,
treatment,0% Never,100% Always,"images\ NASALTIP_CFD_BM_234_172_N.png
",0,0,0,0,3,38,323,68,,,,,,,,,,,,2023-04-07_19h45.18.188,FaceAttractiveness,2022.2.5,143.1733514428723,
treatment,0% Never,100% Always,images\ LIP_CFD_BM_213_134_N.png,0,0,0,0,3,39,324,48,,,,,,,,,,,,2023-04-07_19h45.18.188,FaceAttractiveness,2022.2.5,143.1733514428723,
treatment,0% Never,100% Always,images\ LIP_CFD_AF_245_143_N.png,0,0,0,0,3,40,325,44,,,,,,,,,,,,2023-04-07_19h45.18.188,FaceAttractiveness,2022.2.5,143.1733514428723,
treatment,0% Never,100% Always,images\FOREHEAD_CFD_BF_224_002_N.png,0,0,0,0,3,41,326,9,,,,,,,,,,,,2023-04-07_19h45.18.188,FaceAttractiveness,2022.2.5,143.1733514428723,
treatment,0% Never,100% Always,images\FOREHEAD_CFD_AF_245_143_N.png,0,0,0,0,3,42,327,6,,,,,,,,,,,,2023-04-07_19h45.18.188,FaceAttractiveness,2022.2.5,143.1733514428723,
treatment,0% Never,100% Always,images\ NASALTIP_CFD_WF_200_099_N.png,0,0,0,0,3,43,328,73,,,,,,,,,,,,2023-04-07_19h45.18.188,FaceAttractiveness,2022.2.5,143.1733514428723,
treatment,0% Never,100% Always,"images\ LIP_136_M_M_N_A.png
",0,0,0,0,3,44,329,41,,,,,,,,,,,,2023-04-07_19h45.18.188,FaceAttractiveness,2022.2.5,143.1733514428723,
treatment,0% Never,100% Always,images\FOREHEAD_CFD_BM_234_172_N.png,0,0,0,0,3,45,330,11,,,,,,,,,,,,2023-04-07_19h45.18.188,FaceAttractiveness,2022.2.5,143.1733514428723,
treatment,0% Never,100% Always,images\ LIP_CFD_LF_224_176_N.png,0,0,0,0,3,46,331,50,,,,,,,,,,,,2023-04-07_19h45.18.188,FaceAttractiveness,2022.2.5,143.1733514428723,
treatment,0% Never,100% Always,images\FOREHEAD_CFD_LF_224_176_N.png,0,0,0,0,3,47,332,12,,,,,,,,,,,,2023-04-07_19h45.18.188,FaceAttractiveness,2022.2.5,143.1733514428723,
treatment,0% Never,100% Always,images\ NASALTIP_CFD_BM_213_134_N.png,0,0,0,0,3,48,333,67,,,,,,,,,,,,2023-04-07_19h45.18.188,FaceAttractiveness,2022.2.5,143.1733514428723,
treatment,0% Never,100% Always,images\ LCHEEK_087_M_M_N_A.png,0,0,0,0,3,49,334,21,,,,,,,,,,,,2023-04-07_19h45.18.188,FaceAttractiveness,2022.2.5,143.1733514428723,
treatment,0% Never,100% Always,images\FOREHEAD_087_M_M_N_A.png,0,0,0,0,3,50,335,2,,,,,,,,,,,,2023-04-07_19h45.18.188,FaceAttractiveness,2022.2.5,143.1733514428723,
treatment,0% Never,100% Always,images\ RCHEEK_CFD_BF_224_002_N.png,0,0,0,0,3,51,336,85,,,,,,,,,,,,2023-04-07_19h45.18.188,FaceAttractiveness,2022.2.5,143.1733514428723,
treatment,0% Never,100% Always,images\ LIP_CFD_WF_200_099_N.png,0,0,0,0,3,52,337,54,,,,,,,,,,,,2023-04-07_19h45.18.188,FaceAttractiveness,2022.2.5,143.1733514428723,
treatment,0% Never,100% Always,images\ LCHEEK_CFD_WM_212_097_N.png,0,0,0,0,3,53,338,37,,,,,,,,,,,,2023-04-07_19h45.18.188,FaceAttractiveness,2022.2.5,143.1733514428723,
treatment,0% Never,100% Always,images\FOREHEAD_035_M_F_N_A.png,0,0,0,0,3,54,339,1,,,,,,,,,,,,2023-04-07_19h45.18.188,FaceAttractiveness,2022.2.5,143.1733514428723,
treatment,0% Never,100% Always,images\ RCHEEK_035_M_F_N_A.png,0,0,0,0,3,55,340,77,,,,,,,,,,,,2023-04-07_19h45.18.188,FaceAttractiveness,2022.2.5,143.1733514428723,
treatment,0% Never,100% Always,images\FOREHEAD_CFD_BF_214_308_N.png,0,0,0,0,3,56,341,8,,,,,,,,,,,,2023-04-07_19h45.18.188,FaceAttractiveness,2022.2.5,143.1733514428723,
treatment,0% Never,100% Always,images\FOREHEAD_CFD_WF_250_167_N.png,0,0,0,0,3,57,342,17,,,,,,,,,,,,2023-04-07_19h45.18.188,FaceAttractiveness,2022.2.5,143.1733514428723,
treatment,0% Never,100% Always,images\ LIP_CFD_WM_212_097_N.png,0,0,0,0,3,58,343,56,,,,,,,,,,,,2023-04-07_19h45.18.188,FaceAttractiveness,2022.2.5,143.1733514428723,
treatment,0% Never,100% Always,images\ NASALTIP_006_M_F_N_A.png,0,0,0,0,3,59,344,57,,,,,,,,,,,,2023-04-07_19h45.18.188,FaceAttractiveness,2022.2.5,143.1733514428723,
treatment,0% Never,100% Always,images\ RCHEEK_CFD_AF_231_357_N.png,0,0,0,0,3,60,345,80,,,,,,,,,,,,2023-04-07_19h45.18.188,FaceAttractiveness,2022.2.5,143.1733514428723,
treatment,0% Never,100% Always,images\ LIP_087_M_M_N_A.png,0,0,0,0,3,61,346,40,,,,,,,,,,,,2023-04-07_19h45.18.188,FaceAttractiveness,2022.2.5,143.1733514428723,
treatment,0% Never,100% Always,images\ RCHEEK_CFD_LM_203_026_N.png,0,0,0,0,3,62,347,90,,,,,,,,,,,,2023-04-07_19h45.18.188,FaceAttractiveness,2022.2.5,143.1733514428723,
treatment,0% Never,100% Always,images\ LCHEEK_035_M_F_N_A.png,0,0,0,0,3,63,348,20,,,,,,,,,,,,2023-04-07_19h45.18.188,FaceAttractiveness,2022.2.5,143.1733514428723,
treatment,0% Never,100% Always,images\ RCHEEK_CFD_AF_237_223_N.png,0,0,0,0,3,64,349,81,,,,,,,,,,,,2023-04-07_19h45.18.188,FaceAttractiveness,2022.2.5,143.1733514428723,
treatment,0% Never,100% Always,images\ LIP_CFD_LM_203_026_N.png,0,0,0,0,3,65,350,52,,,,,,,,,,,,2023-04-07_19h45.18.188,FaceAttractiveness,2022.2.5,143.1733514428723,
treatment,0% Never,100% Always,images\ RCHEEK_CFD_WF_250_167_N.png,0,0,0,0,3,66,351,93,,,,,,,,,,,,2023-04-07_19h45.18.188,FaceAttractiveness,2022.2.5,143.1733514428723,
treatment,0% Never,100% Always,images\FOREHEAD_CFD_LM_201_057_N.png,0,0,0,0,3,67,352,13,,,,,,,,,,,,2023-04-07_19h45.18.188,FaceAttractiveness,2022.2.5,143.1733514428723,
treatment,0% Never,100% Always,images\FOREHEAD_CFD_WF_002_004_N.png,0,0,0,0,3,68,353,15,,,,,,,,,,,,2023-04-07_19h45.18.188,FaceAttractiveness,2022.2.5,143.1733514428723,
treatment,0% Never,100% Always,"images\ RCHEEK_CFD_BM_234_172_N.png
",0,0,0,0,3,69,354,87,,,,,,,,,,,,2023-04-07_19h45.18.188,FaceAttractiveness,2022.2.5,143.1733514428723,
treatment,0% Never,100% Always,images\FOREHEAD_CFD_AM_233_236_N.png,0,0,0,0,3,70,355,7,,,,,,,,,,,,2023-04-07_19h45.18.188,FaceAttractiveness,2022.2.5,143.1733514428723,
treatment,0% Never,100% Always,images\ NASALTIP_CFD_AF_245_143_N.png,0,0,0,0,3,71,356,63,,,,,,,,,,,,2023-04-07_19h45.18.188,FaceAttractiveness,2022.2.5,143.1733514428723,
treatment,0% Never,100% Always,"images\ LIP_CFD_BM_234_172_N.png
",0,0,0,0,3,72,357,49,,,,,,,,,,,,2023-04-07_19h45.18.188,FaceAttractiveness,2022.2.5,143.1733514428723,
treatment,0% Never,100% Always,images\ NASALTIP_CFD_WM_212_097_N.png,0,0,0,0,3,73,358,75,,,,,,,,,,,,2023-04-07_19h45.18.188,FaceAttractiveness,2022.2.5,143.1733514428723,
treatment,0% Never,100% Always,images\ NASALTIP_035_M_F_N_A.png,0,0,0,0,3,74,359,58,,,,,,,,,,,,2023-04-07_19h45.18.188,FaceAttractiveness,2022.2.5,143.1733514428723,
treatment,0% Never,100% Always,images\ LIP_035_M_F_N_A.png,0,0,0,0,3,75,360,39,,,,,,,,,,,,2023-04-07_19h45.18.188,FaceAttractiveness,2022.2.5,143.1733514428723,
treatment,0% Never,100% Always,"images\ NASALTIP_CFD_WF_002_004_N.png
",0,0,0,0,3,76,361,72,,,,,,,,,,,,2023-04-07_19h45.18.188,FaceAttractiveness,2022.2.5,143.1733514428723,
treatment,0% Never,100% Always,images\ LCHEEK_CFD_WF_200_099_N.png,0,0,0,0,3,77,362,35,,,,,,,,,,,,2023-04-07_19h45.18.188,FaceAttractiveness,2022.2.5,143.1733514428723,
treatment,0% Never,100% Always,"images\ NASALTIP_CFD_AM_233_236_N.png
",0,0,0,0,3,78,363,64,,,,,,,,,,,,2023-04-07_19h45.18.188,FaceAttractiveness,2022.2.5,143.1733514428723,
treatment,0% Never,100% Always,"images\ LCHEEK_CFD_BM_234_172_N.png
",0,0,0,0,3,79,364,30,,,,,,,,,,,,2023-04-07_19h45.18.188,FaceAttractiveness,2022.2.5,143.1733514428723,
treatment,0% Never,100% Always,images\ RCHEEK_CFD_BF_214_308_N.png,0,0,0,0,3,80,365,84,,,,,,,,,,,,2023-04-07_19h45.18.188,FaceAttractiveness,2022.2.5,143.1733514428723,
treatment,0% Never,100% Always,images\ LCHEEK_CFD_LM_201_057_N.png,0,0,0,0,3,81,366,32,,,,,,,,,,,,2023-04-07_19h45.18.188,FaceAttractiveness,2022.2.5,143.1733514428723,
treatment,0% Never,100% Always,images\ LIP_CFD_BF_214_308_N.png,0,0,0,0,3,82,367,46,,,,,,,,,,,,2023-04-07_19h45.18.188,FaceAttractiveness,2022.2.5,143.1733514428723,
treatment,0% Never,100% Always,images\ LCHEEK_006_M_F_N_A.png,0,0,0,0,3,83,368,19,,,,,,,,,,,,2023-04-07_19h45.18.188,FaceAttractiveness,2022.2.5,143.1733514428723,
treatment,0% Never,100% Always,images\ LIP_CFD_LM_201_057_N.png,0,0,0,0,3,84,369,51,,,,,,,,,,,,2023-04-07_19h45.18.188,FaceAttractiveness,2022.2.5,143.1733514428723,
treatment,0% Never,100% Always,images\FOREHEAD_CFD_BM_213_134_N.png,0,0,0,0,3,85,370,10,,,,,,,,,,,,2023-04-07_19h45.18.188,FaceAttractiveness,2022.2.5,143.1733514428723,
treatment,0% Never,100% Always,images\ LCHEEK_CFD_WF_250_167_N.png,0,0,0,0,3,86,371,36,,,,,,,,,,,,2023-04-07_19h45.18.188,FaceAttractiveness,2022.2.5,143.1733514428723,
treatment,0% Never,100% Always,images\ NASALTIP_CFD_AF_237_223_N.png,0,0,0,0,3,87,372,62,,,,,,,,,,,,2023-04-07_19h45.18.188,FaceAttractiveness,2022.2.5,143.1733514428723,
treatment,0% Never,100% Always,images\ NASALTIP_CFD_BF_214_308_N.png,0,0,0,0,3,88,373,65,,,,,,,,,,,,2023-04-07_19h45.18.188,FaceAttractiveness,2022.2.5,143.1733514428723,
treatment,0% Never,100% Always,images\ LCHEEK_CFD_LM_203_026_N.png,0,0,0,0,3,89,374,33,,,,,,,,,,,,2023-04-07_19h45.18.188,FaceAttractiveness,2022.2.5,143.1733514428723,
treatment,0% Never,100% Always,images\ NASALTIP_CFD_LF_224_176_N.png,0,0,0,0,3,90,375,69,,,,,,,,,,,,2023-04-07_19h45.18.188,FaceAttractiveness,2022.2.5,143.1733514428723,
treatment,0% Never,100% Always,images\ RCHEEK_CFD_LF_224_176_N.png,0,0,0,0,3,91,376,88,,,,,,,,,,,,2023-04-07_19h45.18.188,FaceAttractiveness,2022.2.5,143.1733514428723,
treatment,0% Never,100% Always,images\FOREHEAD_006_M_F_N_A.png,0,0,0,0,3,92,377,0,,,,,,,,,,,,2023-04-07_19h45.18.188,FaceAttractiveness,2022.2.5,143.1733514428723,
treatment,0% Never,100% Always,"images\ LIP_CFD_AM_233_236_N.png
",0,0,0,0,3,93,378,45,,,,,,,,,,,,2023-04-07_19h45.18.188,FaceAttractiveness,2022.2.5,143.1733514428723,
treatment,0% Never,100% Always,images\ RCHEEK_CFD_WF_200_099_N.png,0,0,0,0,3,94,379,92,,,,,,,,,,,,2023-04-07_19h45.18.188,FaceAttractiveness,2022.2.5,143.1733514428723,
treatment,0% Never,100% Always,images\ LIP_CFD_AF_245_143_N.png,0,0,0,0,4,0,380,44,,,,,,,,,,,,2023-04-07_19h45.18.188,FaceAttractiveness,2022.2.5,143.1733514428723,
treatment,0% Never,100% Always,images\FOREHEAD_CFD_WF_002_004_N.png,0,0,0,0,4,1,381,15,,,,,,,,,,,,2023-04-07_19h45.18.188,FaceAttractiveness,2022.2.5,143.1733514428723,
treatment,0% Never,100% Always,images\ RCHEEK_CFD_LM_203_026_N.png,0,0,0,0,4,2,382,90,,,,,,,,,,,,2023-04-07_19h45.18.188,FaceAttractiveness,2022.2.5,143.1733514428723,
treatment,0% Never,100% Always,images\FOREHEAD_CFD_LM_201_057_N.png,0,0,0,0,4,3,383,13,,,,,,,,,,,,2023-04-07_19h45.18.188,FaceAttractiveness,2022.2.5,143.1733514428723,
treatment,0% Never,100% Always,images\ LCHEEK_CFD_BF_214_308_N.png,0,0,0,0,4,4,384,27,,,,,,,,,,,,2023-04-07_19h45.18.188,FaceAttractiveness,2022.2.5,143.1733514428723,
treatment,0% Never,100% Always,images\ NASALTIP_CFD_WF_250_167_N.png,0,0,0,0,4,5,385,74,,,,,,,,,,,,2023-04-07_19h45.18.188,FaceAttractiveness,2022.2.5,143.1733514428723,
treatment,0% Never,100% Always,images\ LIP_CFD_BF_224_002_N.png,0,0,0,0,4,6,386,47,,,,,,,,,,,,2023-04-07_19h45.18.188,FaceAttractiveness,2022.2.5,143.1733514428723,
treatment,0% Never,100% Always,images\ NASALTIP_035_M_F_N_A.png,0,0,0,0,4,7,387,58,,,,,,,,,,,,2023-04-07_19h45.18.188,FaceAttractiveness,2022.2.5,143.1733514428723,
treatment,0% Never,100% Always,images\ NASALTIP_CFD_BM_213_134_N.png,0,0,0,0,4,8,388,67,,,,,,,,,,,,2023-04-07_19h45.18.188,FaceAttractiveness,2022.2.5,143.1733514428723,
treatment,0% Never,100% Always,images\ LIP_035_M_F_N_A.png,0,0,0,0,4,9,389,39,,,,,,,,,,,,2023-04-07_19h45.18.188,FaceAttractiveness,2022.2.5,143.1733514428723,
treatment,0% Never,100% Always,images\ NASALTIP_CFD_LM_201_057_N.png,0,0,0,0,4,10,390,70,,,,,,,,,,,,2023-04-07_19h45.18.188,FaceAttractiveness,2022.2.5,143.1733514428723,
treatment,0% Never,100% Always,images\FOREHEAD_CFD_AF_245_143_N.png,0,0,0,0,4,11,391,6,,,,,,,,,,,,2023-04-07_19h45.18.188,FaceAttractiveness,2022.2.5,143.1733514428723,
treatment,0% Never,100% Always,images\FOREHEAD_CFD_WF_200_099_N.png,0,0,0,0,4,12,392,16,,,,,,,,,,,,2023-04-07_19h45.18.188,FaceAttractiveness,2022.2.5,143.1733514428723,
treatment,0% Never,100% Always,images\ RCHEEK_087_M_M_N_A.png,0,0,0,0,4,13,393,78,,,,,,,,,,,,2023-04-07_19h45.18.188,FaceAttractiveness,2022.2.5,143.1733514428723,
treatment,0% Never,100% Always,images\ NASALTIP_CFD_BF_224_002_N.png,0,0,0,0,4,14,394,66,,,,,,,,,,,,2023-04-07_19h45.18.188,FaceAttractiveness,2022.2.5,143.1733514428723,
treatment,0% Never,100% Always,"images\ NASALTIP_CFD_WF_002_004_N.png
",0,0,0,0,4,15,395,72,,,,,,,,,,,,2023-04-07_19h45.18.188,FaceAttractiveness,2022.2.5,143.1733514428723,
treatment,0% Never,100% Always,images\ RCHEEK_CFD_LM_201_057_N.png,0,0,0,0,4,16,396,89,,,,,,,,,,,,2023-04-07_19h45.18.188,FaceAttractiveness,2022.2.5,143.1733514428723,
treatment,0% Never,100% Always,images\ LCHEEK_087_M_M_N_A.png,0,0,0,0,4,17,397,21,,,,,,,,,,,,2023-04-07_19h45.18.188,FaceAttractiveness,2022.2.5,143.1733514428723,
treatment,0% Never,100% Always,images\FOREHEAD_CFD_BM_234_172_N.png,0,0,0,0,4,18,398,11,,,,,,,,,,,,2023-04-07_19h45.18.188,FaceAttractiveness,2022.2.5,143.1733514428723,
treatment,0% Never,100% Always,images\FOREHEAD_CFD_WM_212_097_N.png,0,0,0,0,4,19,399,18,,,,,,,,,,,,2023-04-07_19h45.18.188,FaceAttractiveness,2022.2.5,143.1733514428723,
treatment,0% Never,100% Always,images\ LIP_CFD_LF_224_176_N.png,0,0,0,0,4,20,400,50,,,,,,,,,,,,2023-04-07_19h45.18.188,FaceAttractiveness,2022.2.5,143.1733514428723,
treatment,0% Never,100% Always,images\ RCHEEK_CFD_WF_250_167_N.png,0,0,0,0,4,21,401,93,,,,,,,,,,,,2023-04-07_19h45.18.188,FaceAttractiveness,2022.2.5,143.1733514428723,
treatment,0% Never,100% Always,images\FOREHEAD_CFD_BM_213_134_N.png,0,0,0,0,4,22,402,10,,,,,,,,,,,,2023-04-07_19h45.18.188,FaceAttractiveness,2022.2.5,143.1733514428723,
treatment,0% Never,100% Always,images\FOREHEAD_CFD_LM_203_026_N.png,0,0,0,0,4,23,403,14,,,,,,,,,,,,2023-04-07_19h45.18.188,FaceAttractiveness,2022.2.5,143.1733514428723,
treatment,0% Never,100% Always,images\ LIP_CFD_LM_203_026_N.png,0,0,0,0,4,24,404,52,,,,,,,,,,,,2023-04-07_19h45.18.188,FaceAttractiveness,2022.2.5,143.1733514428723,
treatment,0% Never,100% Always,images\ LIP_CFD_WM_212_097_N.png,0,0,0,0,4,25,405,56,,,,,,,,,,,,2023-04-07_19h45.18.188,FaceAttractiveness,2022.2.5,143.1733514428723,
treatment,0% Never,100% Always,images\ NASALTIP_CFD_BF_214_308_N.png,0,0,0,0,4,26,406,65,,,,,,,,,,,,2023-04-07_19h45.18.188,FaceAttractiveness,2022.2.5,143.1733514428723,
treatment,0% Never,100% Always,images\ RCHEEK_006_M_F_N_A.png,0,0,0,0,4,27,407,76,,,,,,,,,,,,2023-04-07_19h45.18.188,FaceAttractiveness,2022.2.5,143.1733514428723,
treatment,0% Never,100% Always,images\ RCHEEK_CFD_AF_237_223_N.png,0,0,0,0,4,28,408,81,,,,,,,,,,,,2023-04-07_19h45.18.188,FaceAttractiveness,2022.2.5,143.1733514428723,
treatment,0% Never,100% Always,"images\ LIP_CFD_AM_233_236_N.png
",0,0,0,0,4,29,409,45,,,,,,,,,,,,2023-04-07_19h45.18.188,FaceAttractiveness,2022.2.5,143.1733514428723,
treatment,0% Never,100% Always,"images\ NASALTIP_136_M_M_N_A.png
",0,0,0,0,4,30,410,60,,,,,,,,,,,,2023-04-07_19h45.18.188,FaceAttractiveness,2022.2.5,143.1733514428723,
treatment,0% Never,100% Always,images\FOREHEAD_087_M_M_N_A.png,0,0,0,0,4,31,411,2,,,,,,,,,,,,2023-04-07_19h45.18.188,FaceAttractiveness,2022.2.5,143.1733514428723,
treatment,0% Never,100% Always,images\ NASALTIP_CFD_AF_231_357_N.png,0,0,0,0,4,32,412,61,,,,,,,,,,,,2023-04-07_19h45.18.188,FaceAttractiveness,2022.2.5,143.1733514428723,
treatment,0% Never,100% Always,images\ LCHEEK_CFD_BF_224_002_N.png,0,0,0,0,4,33,413,28,,,,,,,,,,,,2023-04-07_19h45.18.188,FaceAttractiveness,2022.2.5,143.1733514428723,
treatment,0% Never,100% Always,images\ NASALTIP_CFD_WF_200_099_N.png,0,0,0,0,4,34,414,73,,,,,,,,,,,,2023-04-07_19h45.18.188,FaceAttractiveness,2022.2.5,143.1733514428723,
treatment,0% Never,100% Always,"images\ NASALTIP_CFD_BM_234_172_N.png
",0,0,0,0,4,35,415,68,,,,,,,,,,,,2023-04-07_19h45.18.188,FaceAttractiveness,2022.2.5,143.1733514428723,
treatment,0% Never,100% Always,"images\ NASALTIP_CFD_AM_233_236_N.png
",0,0,0,0,4,36,416,64,,,,,,,,,,,,2023-04-07_19h45.18.188,FaceAttractiveness,2022.2.5,143.1733514428723,
treatment,0% Never,100% Always,images\ RCHEEK_CFD_AF_231_357_N.png,0,0,0,0,4,37,417,80,,,,,,,,,,,,2023-04-07_19h45.18.188,FaceAttractiveness,2022.2.5,143.1733514428723,
treatment,0% Never,100% Always,images\ LCHEEK_CFD_LM_203_026_N.png,0,0,0,0,4,38,418,33,,,,,,,,,,,,2023-04-07_19h45.18.188,FaceAttractiveness,2022.2.5,143.1733514428723,
treatment,0% Never,100% Always,"images\ LIP_CFD_WF_002_004_N.png
",0,0,0,0,4,39,419,53,,,,,,,,,,,,2023-04-07_19h45.18.188,FaceAttractiveness,2022.2.5,143.1733514428723,
treatment,0% Never,100% Always,"images\ LCHEEK_CFD_AM_233_236_N.png
",0,0,0,0,4,40,420,26,,,,,,,,,,,,2023-04-07_19h45.18.188,FaceAttractiveness,2022.2.5,143.1733514428723,
treatment,0% Never,100% Always,images\FOREHEAD_CFD_BF_214_308_N.png,0,0,0,0,4,41,421,8,,,,,,,,,,,,2023-04-07_19h45.18.188,FaceAttractiveness,2022.2.5,143.1733514428723,
treatment,0% Never,100% Always,images\ LCHEEK_CFD_LM_201_057_N.png,0,0,0,0,4,42,422,32,,,,,,,,,,,,2023-04-07_19h45.18.188,FaceAttractiveness,2022.2.5,143.1733514428723,
treatment,0% Never,100% Always,"images\ LIP_CFD_BM_234_172_N.png
",0,0,0,0,4,43,423,49,,,,,,,,,,,,2023-04-07_19h45.18.188,FaceAttractiveness,2022.2.5,143.1733514428723,
treatment,0% Never,100% Always,images\ LCHEEK_CFD_BM_213_134_N.png,0,0,0,0,4,44,424,29,,,,,,,,,,,,2023-04-07_19h45.18.188,FaceAttractiveness,2022.2.5,143.1733514428723,
treatment,0% Never,100% Always,images\ NASALTIP_006_M_F_N_A.png,0,0,0,0,4,45,425,57,,,,,,,,,,,,2023-04-07_19h45.18.188,FaceAttractiveness,2022.2.5,143.1733514428723,
treatment,0% Never,100% Always,images\ LIP_CFD_BM_213_134_N.png,0,0,0,0,4,46,426,48,,,,,,,,,,,,2023-04-07_19h45.18.188,FaceAttractiveness,2022.2.5,143.1733514428723,
treatment,0% Never,100% Always,"images\ RCHEEK_CFD_BM_234_172_N.png
",0,0,0,0,4,47,427,87,,,,,,,,,,,,2023-04-07_19h45.18.188,FaceAttractiveness,2022.2.5,143.1733514428723,
treatment,0% Never,100% Always,images\FOREHEAD_CFD_AM_233_236_N.png,0,0,0,0,4,48,428,7,,,,,,,,,,,,2023-04-07_19h45.18.188,FaceAttractiveness,2022.2.5,143.1733514428723,
treatment,0% Never,100% Always,images\FOREHEAD_CFD_AF_237_223_N.png,0,0,0,0,4,49,429,5,,,,,,,,,,,,2023-04-07_19h45.18.188,FaceAttractiveness,2022.2.5,143.1733514428723,
treatment,0% Never,100% Always,images\ NASALTIP_CFD_LF_224_176_N.png,0,0,0,0,4,50,430,69,,,,,,,,,,,,2023-04-07_19h45.18.188,FaceAttractiveness,2022.2.5,143.1733514428723,
treatment,0% Never,100% Always,images\ NASALTIP_CFD_LM_203_026_N.png,0,0,0,0,4,51,431,71,,,,,,,,,,,,2023-04-07_19h45.18.188,FaceAttractiveness,2022.2.5,143.1733514428723,
treatment,0% Never,100% Always,images\ RCHEEK_CFD_AF_245_143_N.png,0,0,0,0,4,52,432,82,,,,,,,,,,,,2023-04-07_19h45.18.188,FaceAttractiveness,2022.2.5,143.1733514428723,
treatment,0% Never,100% Always,images\ LCHEEK_006_M_F_N_A.png,0,0,0,0,4,53,433,19,,,,,,,,,,,,2023-04-07_19h45.18.188,FaceAttractiveness,2022.2.5,143.1733514428723,
treatment,0% Never,100% Always,images\ LIP_006_M_F_N_A.png,0,0,0,0,4,54,434,38,,,,,,,,,,,,2023-04-07_19h45.18.188,FaceAttractiveness,2022.2.5,143.1733514428723,
treatment,0% Never,100% Always,"images\ LCHEEK_136_M_M_N_A.png
",0,0,0,0,4,55,435,22,,,,,,,,,,,,2023-04-07_19h45.18.188,FaceAttractiveness,2022.2.5,143.1733514428723,
treatment,0% Never,100% Always,images\ LIP_087_M_M_N_A.png,0,0,0,0,4,56,436,40,,,,,,,,,,,,2023-04-07_19h45.18.188,FaceAttractiveness,2022.2.5,143.1733514428723,
treatment,0% Never,100% Always,images\ LIP_CFD_LM_201_057_N.png,0,0,0,0,4,57,437,51,,,,,,,,,,,,2023-04-07_19h45.18.188,FaceAttractiveness,2022.2.5,143.1733514428723,
treatment,0% Never,100% Always,images\ LCHEEK_CFD_WM_212_097_N.png,0,0,0,0,4,58,438,37,,,,,,,,,,,,2023-04-07_19h45.18.188,FaceAttractiveness,2022.2.5,143.1733514428723,
treatment,0% Never,100% Always,"images\ RCHEEK_CFD_WF_002_004_N.png
",0,0,0,0,4,59,439,91,,,,,,,,,,,,2023-04-07_19h45.18.188,FaceAttractiveness,2022.2.5,143.1733514428723,
treatment,0% Never,100% Always,images\ RCHEEK_CFD_BF_214_308_N.png,0,0,0,0,4,60,440,84,,,,,,,,,,,,2023-04-07_19h45.18.188,FaceAttractiveness,2022.2.5,143.1733514428723,
treatment,0% Never,100% Always,images\ LIP_CFD_AF_237_223_N.png,0,0,0,0,4,61,441,43,,,,,,,,,,,,2023-04-07_19h45.18.188,FaceAttractiveness,2022.2.5,143.1733514428723,
treatment,0% Never,100% Always,"images\ LCHEEK_CFD_WF_002_004_N.png
",0,0,0,0,4,62,442,34,,,,,,,,,,,,2023-04-07_19h45.18.188,FaceAttractiveness,2022.2.5,143.1733514428723,
treatment,0% Never,100% Always,images\ RCHEEK_CFD_LF_224_176_N.png,0,0,0,0,4,63,443,88,,,,,,,,,,,,2023-04-07_19h45.18.188,FaceAttractiveness,2022.2.5,143.1733514428723,
treatment,0% Never,100% Always,images\ LCHEEK_035_M_F_N_A.png,0,0,0,0,4,64,444,20,,,,,,,,,,,,2023-04-07_19h45.18.188,FaceAttractiveness,2022.2.5,143.1733514428723,
treatment,0% Never,100% Always,images\FOREHEAD_035_M_F_N_A.png,0,0,0,0,4,65,445,1,,,,,,,,,,,,2023-04-07_19h45.18.188,FaceAttractiveness,2022.2.5,143.1733514428723,
treatment,0% Never,100% Always,images\ RCHEEK_035_M_F_N_A.png,0,0,0,0,4,66,446,77,,,,,,,,,,,,2023-04-07_19h45.18.188,FaceAttractiveness,2022.2.5,143.1733514428723,
treatment,0% Never,100% Always,images\ LIP_CFD_WF_250_167_N.png,0,0,0,0,4,67,447,55,,,,,,,,,,,,2023-04-07_19h45.18.188,FaceAttractiveness,2022.2.5,143.1733514428723,
treatment,0% Never,100% Always,images\ LCHEEK_CFD_AF_231_357_N.png,0,0,0,0,4,68,448,23,,,,,,,,,,,,2023-04-07_19h45.18.188,FaceAttractiveness,2022.2.5,143.1733514428723,
treatment,0% Never,100% Always,"images\ LIP_136_M_M_N_A.png
",0,0,0,0,4,69,449,41,,,,,,,,,,,,2023-04-07_19h45.18.188,FaceAttractiveness,2022.2.5,143.1733514428723,
treatment,0% Never,100% Always,images\ RCHEEK_CFD_BF_224_002_N.png,0,0,0,0,4,70,450,85,,,,,,,,,,,,2023-04-07_19h45.18.188,FaceAttractiveness,2022.2.5,143.1733514428723,
treatment,0% Never,100% Always,images\ NASALTIP_CFD_AF_245_143_N.png,0,0,0,0,4,71,451,63,,,,,,,,,,,,2023-04-07_19h45.18.188,FaceAttractiveness,2022.2.5,143.1733514428723,
treatment,0% Never,100% Always,images\ NASALTIP_087_M_M_N_A.png,0,0,0,0,4,72,452,59,,,,,,,,,,,,2023-04-07_19h45.18.188,FaceAttractiveness,2022.2.5,143.1733514428723,
treatment,0% Never,100% Always,images\FOREHEAD_CFD_AF_231_357_N.png,0,0,0,0,4,73,453,4,,,,,,,,,,,,2023-04-07_19h45.18.188,FaceAttractiveness,2022.2.5,143.1733514428723,
treatment,0% Never,100% Always,images\ RCHEEK_CFD_WM_212_097_N.png,0,0,0,0,4,74,454,94,,,,,,,,,,,,2023-04-07_19h45.18.188,FaceAttractiveness,2022.2.5,143.1733514428723,
treatment,0% Never,100% Always,"images\ LCHEEK_CFD_BM_234_172_N.png
",0,0,0,0,4,75,455,30,,,,,,,,,,,,2023-04-07_19h45.18.188,FaceAttractiveness,2022.2.5,143.1733514428723,
treatment,0% Never,100% Always,images\ LIP_CFD_WF_200_099_N.png,0,0,0,0,4,76,456,54,,,,,,,,,,,,2023-04-07_19h45.18.188,FaceAttractiveness,2022.2.5,143.1733514428723,
treatment,0% Never,100% Always,images\ NASALTIP_CFD_AF_237_223_N.png,0,0,0,0,4,77,457,62,,,,,,,,,,,,2023-04-07_19h45.18.188,FaceAttractiveness,2022.2.5,143.1733514428723,
treatment,0% Never,100% Always,images\ LCHEEK_CFD_AF_237_223_N.png,0,0,0,0,4,78,458,24,,,,,,,,,,,,2023-04-07_19h45.18.188,FaceAttractiveness,2022.2.5,143.1733514428723,
treatment,0% Never,100% Always,images\ LCHEEK_CFD_WF_250_167_N.png,0,0,0,0,4,79,459,36,,,,,,,,,,,,2023-04-07_19h45.18.188,FaceAttractiveness,2022.2.5,143.1733514428723,
treatment,0% Never,100% Always,images\FOREHEAD_CFD_WF_250_167_N.png,0,0,0,0,4,80,460,17,,,,,,,,,,,,2023-04-07_19h45.18.188,FaceAttractiveness,2022.2.5,143.1733514428723,
treatment,0% Never,100% Always,"images\ RCHEEK_136_M_M_N_A.png
",0,0,0,0,4,81,461,79,,,,,,,,,,,,2023-04-07_19h45.18.188,FaceAttractiveness,2022.2.5,143.1733514428723,
treatment,0% Never,100% Always,images\ LIP_CFD_BF_214_308_N.png,0,0,0,0,4,82,462,46,,,,,,,,,,,,2023-04-07_19h45.18.188,FaceAttractiveness,2022.2.5,143.1733514428723,
treatment,0% Never,100% Always,images\ LCHEEK_CFD_WF_200_099_N.png,0,0,0,0,4,83,463,35,,,,,,,,,,,,2023-04-07_19h45.18.188,FaceAttractiveness,2022.2.5,143.1733514428723,
treatment,0% Never,100% Always,images\FOREHEAD_CFD_BF_224_002_N.png,0,0,0,0,4,84,464,9,,,,,,,,,,,,2023-04-07_19h45.18.188,FaceAttractiveness,2022.2.5,143.1733514428723,
treatment,0% Never,100% Always,images\FOREHEAD_006_M_F_N_A.png,0,0,0,0,4,85,465,0,,,,,,,,,,,,2023-04-07_19h45.18.188,FaceAttractiveness,2022.2.5,143.1733514428723,
treatment,0% Never,100% Always,images\ LCHEEK_CFD_AF_245_143_N.png,0,0,0,0,4,86,466,25,,,,,,,,,,,,2023-04-07_19h45.18.188,FaceAttractiveness,2022.2.5,143.1733514428723,
treatment,0% Never,100% Always,images\ RCHEEK_CFD_WF_200_099_N.png,0,0,0,0,4,87,467,92,,,,,,,,,,,,2023-04-07_19h45.18.188,FaceAttractiveness,2022.2.5,143.1733514428723,
treatment,0% Never,100% Always,"images\ RCHEEK_CFD_AM_233_236_N.png
",0,0,0,0,4,88,468,83,,,,,,,,,,,,2023-04-07_19h45.18.188,FaceAttractiveness,2022.2.5,143.1733514428723,
treatment,0% Never,100% Always,images\ LCHEEK_CFD_LF_224_176_N.png,0,0,0,0,4,89,469,31,,,,,,,,,,,,2023-04-07_19h45.18.188,FaceAttractiveness,2022.2.5,143.1733514428723,
treatment,0% Never,100% Always,images\ LIP_CFD_AF_231_357_N.png,0,0,0,0,4,90,470,42,,,,,,,,,,,,2023-04-07_19h45.18.188,FaceAttractiveness,2022.2.5,143.1733514428723,
treatment,0% Never,100% Always,images\ NASALTIP_CFD_WM_212_097_N.png,0,0,0,0,4,91,471,75,,,,,,,,,,,,2023-04-07_19h45.18.188,FaceAttractiveness,2022.2.5,143.1733514428723,
treatment,0% Never,100% Always,images\FOREHEAD_CFD_LF_224_176_N.png,0,0,0,0,4,92,472,12,,,,,,,,,,,,2023-04-07_19h45.18.188,FaceAttractiveness,2022.2.5,143.1733514428723,
treatment,0% Never,100% Always,images\FOREHEAD_136_M_M_N_A.png,0,0,0,0,4,93,473,3,,,,,,,,,,,,2023-04-07_19h45.18.188,FaceAttractiveness,2022.2.5,143.1733514428723,
treatment,0% Never,100% Always,images\ RCHEEK_CFD_BM_213_134_N.png,0,0,0,0,4,94,474,86,,,,,,,,,,,,2023-04-07_19h45.18.188,FaceAttractiveness,2022.2.5,143.1733514428723,
treatment,0% Never,100% Always,images\ LIP_CFD_LM_203_026_N.png,0,0,0,0,5,0,475,52,,,,,,,,,,,,2023-04-07_19h45.18.188,FaceAttractiveness,2022.2.5,143.1733514428723,
treatment,0% Never,100% Always,"images\ RCHEEK_136_M_M_N_A.png
",0,0,0,0,5,1,476,79,,,,,,,,,,,,2023-04-07_19h45.18.188,FaceAttractiveness,2022.2.5,143.1733514428723,
treatment,0% Never,100% Always,"images\ LIP_CFD_AM_233_236_N.png
",0,0,0,0,5,2,477,45,,,,,,,,,,,,2023-04-07_19h45.18.188,FaceAttractiveness,2022.2.5,143.1733514428723,
treatment,0% Never,100% Always,images\ RCHEEK_CFD_WF_200_099_N.png,0,0,0,0,5,3,478,92,,,,,,,,,,,,2023-04-07_19h45.18.188,FaceAttractiveness,2022.2.5,143.1733514428723,
treatment,0% Never,100% Always,images\FOREHEAD_CFD_AM_233_236_N.png,0,0,0,0,5,4,479,7,,,,,,,,,,,,2023-04-07_19h45.18.188,FaceAttractiveness,2022.2.5,143.1733514428723,
treatment,0% Never,100% Always,images\ LIP_CFD_WF_200_099_N.png,0,0,0,0,5,5,480,54,,,,,,,,,,,,2023-04-07_19h45.18.188,FaceAttractiveness,2022.2.5,143.1733514428723,
treatment,0% Never,100% Always,images\FOREHEAD_035_M_F_N_A.png,0,0,0,0,5,6,481,1,,,,,,,,,,,,2023-04-07_19h45.18.188,FaceAttractiveness,2022.2.5,143.1733514428723,
treatment,0% Never,100% Always,images\ LCHEEK_087_M_M_N_A.png,0,0,0,0,5,7,482,21,,,,,,,,,,,,2023-04-07_19h45.18.188,FaceAttractiveness,2022.2.5,143.1733514428723,
treatment,0% Never,100% Always,images\ LCHEEK_CFD_BM_213_134_N.png,0,0,0,0,5,8,483,29,,,,,,,,,,,,2023-04-07_19h45.18.188,FaceAttractiveness,2022.2.5,143.1733514428723,
treatment,0% Never,100% Always,images\FOREHEAD_CFD_LM_201_057_N.png,0,0,0,0,5,9,484,13,,,,,,,,,,,,2023-04-07_19h45.18.188,FaceAttractiveness,2022.2.5,143.1733514428723,
treatment,0% Never,100% Always,images\ RCHEEK_CFD_LM_203_026_N.png,0,0,0,0,5,10,485,90,,,,,,,,,,,,2023-04-07_19h45.18.188,FaceAttractiveness,2022.2.5,143.1733514428723,
treatment,0% Never,100% Always,"images\ NASALTIP_CFD_AM_233_236_N.png
",0,0,0,0,5,11,486,64,,,,,,,,,,,,2023-04-07_19h45.18.188,FaceAttractiveness,2022.2.5,143.1733514428723,
treatment,0% Never,100% Always,"images\ NASALTIP_CFD_WF_002_004_N.png
",0,0,0,0,5,12,487,72,,,,,,,,,,,,2023-04-07_19h45.18.188,FaceAttractiveness,2022.2.5,143.1733514428723,
treatment,0% Never,100% Always,images\ NASALTIP_CFD_BM_213_134_N.png,0,0,0,0,5,13,488,67,,,,,,,,,,,,2023-04-07_19h45.18.188,FaceAttractiveness,2022.2.5,143.1733514428723,
treatment,0% Never,100% Always,images\ NASALTIP_CFD_BF_224_002_N.png,0,0,0,0,5,14,489,66,,,,,,,,,,,,2023-04-07_19h45.18.188,FaceAttractiveness,2022.2.5,143.1733514428723,
treatment,0% Never,100% Always,"images\ NASALTIP_136_M_M_N_A.png
",0,0,0,0,5,15,490,60,,,,,,,,,,,,2023-04-07_19h45.18.188,FaceAttractiveness,2022.2.5,143.1733514428723,
treatment,0% Never,100% Always,images\ LCHEEK_CFD_LF_224_176_N.png,0,0,0,0,5,16,491,31,,,,,,,,,,,,2023-04-07_19h45.18.188,FaceAttractiveness,2022.2.5,143.1733514428723,
treatment,0% Never,100% Always,images\ LIP_CFD_BF_214_308_N.png,0,0,0,0,5,17,492,46,,,,,,,,,,,,2023-04-07_19h45.18.188,FaceAttractiveness,2022.2.5,143.1733514428723,
treatment,0% Never,100% Always,images\ LCHEEK_CFD_AF_237_223_N.png,0,0,0,0,5,18,493,24,,,,,,,,,,,,2023-04-07_19h45.18.188,FaceAttractiveness,2022.2.5,143.1733514428723,
treatment,0% Never,100% Always,images\ RCHEEK_CFD_LF_224_176_N.png,0,0,0,0,5,19,494,88,,,,,,,,,,,,2023-04-07_19h45.18.188,FaceAttractiveness,2022.2.5,143.1733514428723,
treatment,0% Never,100% Always,images\ LCHEEK_CFD_WM_212_097_N.png,0,0,0,0,5,20,495,37,,,,,,,,,,,,2023-04-07_19h45.18.188,FaceAttractiveness,2022.2.5,143.1733514428723,
treatment,0% Never,100% Always,images\ LCHEEK_CFD_BF_224_002_N.png,0,0,0,0,5,21,496,28,,,,,,,,,,,,2023-04-07_19h45.18.188,FaceAttractiveness,2022.2.5,143.1733514428723,
treatment,0% Never,100% Always,images\FOREHEAD_CFD_AF_237_223_N.png,0,0,0,0,5,22,497,5,,,,,,,,,,,,2023-04-07_19h45.18.188,FaceAttractiveness,2022.2.5,143.1733514428723,
treatment,0% Never,100% Always,images\ LCHEEK_CFD_LM_203_026_N.png,0,0,0,0,5,23,498,33,,,,,,,,,,,,2023-04-07_19h45.18.188,FaceAttractiveness,2022.2.5,143.1733514428723,
treatment,0% Never,100% Always,images\ LCHEEK_CFD_AF_245_143_N.png,0,0,0,0,5,24,499,25,,,,,,,,,,,,2023-04-07_19h45.18.188,FaceAttractiveness,2022.2.5,143.1733514428723,
treatment,0% Never,100% Always,images\ LIP_CFD_AF_237_223_N.png,0,0,0,0,5,25,500,43,,,,,,,,,,,,2023-04-07_19h45.18.188,FaceAttractiveness,2022.2.5,143.1733514428723,
treatment,0% Never,100% Always,"images\ RCHEEK_CFD_AM_233_236_N.png
",0,0,0,0,5,26,501,83,,,,,,,,,,,,2023-04-07_19h45.18.188,FaceAttractiveness,2022.2.5,143.1733514428723,
treatment,0% Never,100% Always,images\ LIP_CFD_LF_224_176_N.png,0,0,0,0,5,27,502,50,,,,,,,,,,,,2023-04-07_19h45.18.188,FaceAttractiveness,2022.2.5,143.1733514428723,
treatment,0% Never,100% Always,images\ LIP_CFD_BF_224_002_N.png,0,0,0,0,5,28,503,47,,,,,,,,,,,,2023-04-07_19h45.18.188,FaceAttractiveness,2022.2.5,143.1733514428723,
treatment,0% Never,100% Always,images\FOREHEAD_CFD_BF_224_002_N.png,0,0,0,0,5,29,504,9,,,,,,,,,,,,2023-04-07_19h45.18.188,FaceAttractiveness,2022.2.5,143.1733514428723,
treatment,0% Never,100% Always,images\FOREHEAD_CFD_BM_213_134_N.png,0,0,0,0,5,30,505,10,,,,,,,,,,,,2023-04-07_19h45.18.188,FaceAttractiveness,2022.2.5,143.1733514428723,
treatment,0% Never,100% Always,images\FOREHEAD_136_M_M_N_A.png,0,0,0,0,5,31,506,3,,,,,,,,,,,,2023-04-07_19h45.18.188,FaceAttractiveness,2022.2.5,143.1733514428723,
treatment,0% Never,100% Always,"images\ LCHEEK_CFD_BM_234_172_N.png
",0,0,0,0,5,32,507,30,,,,,,,,,,,,2023-04-07_19h45.18.188,FaceAttractiveness,2022.2.5,143.1733514428723,
treatment,0% Never,100% Always,images\ LIP_087_M_M_N_A.png,0,0,0,0,5,33,508,40,,,,,,,,,,,,2023-04-07_19h45.18.188,FaceAttractiveness,2022.2.5,143.1733514428723,
treatment,0% Never,100% Always,images\ LIP_CFD_LM_201_057_N.png,0,0,0,0,5,34,509,51,,,,,,,,,,,,2023-04-07_19h45.18.188,FaceAttractiveness,2022.2.5,143.1733514428723,
treatment,0% Never,100% Always,images\ NASALTIP_CFD_AF_237_223_N.png,0,0,0,0,5,35,510,62,,,,,,,,,,,,2023-04-07_19h45.18.188,FaceAttractiveness,2022.2.5,143.1733514428723,
treatment,0% Never,100% Always,images\ RCHEEK_CFD_BF_224_002_N.png,0,0,0,0,5,36,511,85,,,,,,,,,,,,2023-04-07_19h45.18.188,FaceAttractiveness,2022.2.5,143.1733514428723,
treatment,0% Never,100% Always,"images\ LIP_CFD_BM_234_172_N.png
",0,0,0,0,5,37,512,49,,,,,,,,,,,,2023-04-07_19h45.18.188,FaceAttractiveness,2022.2.5,143.1733514428723,
treatment,0% Never,100% Always,images\ NASALTIP_CFD_AF_245_143_N.png,0,0,0,0,5,38,513,63,,,,,,,,,,,,2023-04-07_19h45.18.188,FaceAttractiveness,2022.2.5,143.1733514428723,
treatment,0% Never,100% Always,images\ RCHEEK_CFD_WM_212_097_N.png,0,0,0,0,5,39,514,94,,,,,,,,,,,,2023-04-07_19h45.18.188,FaceAttractiveness,2022.2.5,143.1733514428723,
treatment,0% Never,100% Always,images\ NASALTIP_035_M_F_N_A.png,0,0,0,0,5,40,515,58,,,,,,,,,,,,2023-04-07_19h45.18.188,FaceAttractiveness,2022.2.5,143.1733514428723,
treatment,0% Never,100% Always,images\ NASALTIP_006_M_F_N_A.png,0,0,0,0,5,41,516,57,,,,,,,,,,,,2023-04-07_19h45.18.188,FaceAttractiveness,2022.2.5,143.1733514428723,
treatment,0% Never,100% Always,images\ NASALTIP_CFD_LM_201_057_N.png,0,0,0,0,5,42,517,70,,,,,,,,,,,,2023-04-07_19h45.18.188,FaceAttractiveness,2022.2.5,143.1733514428723,
treatment,0% Never,100% Always,images\ LIP_CFD_AF_231_357_N.png,0,0,0,0,5,43,518,42,,,,,,,,,,,,2023-04-07_19h45.18.188,FaceAttractiveness,2022.2.5,143.1733514428723,
treatment,0% Never,100% Always,images\ RCHEEK_CFD_BM_213_134_N.png,0,0,0,0,5,44,519,86,,,,,,,,,,,,2023-04-07_19h45.18.188,FaceAttractiveness,2022.2.5,143.1733514428723,
treatment,0% Never,100% Always,"images\ LCHEEK_CFD_WF_002_004_N.png
",0,0,0,0,5,45,520,34,,,,,,,,,,,,2023-04-07_19h45.18.188,FaceAttractiveness,2022.2.5,143.1733514428723,
treatment,0% Never,100% Always,images\ LCHEEK_CFD_BF_214_308_N.png,0,0,0,0,5,46,521,27,,,,,,,,,,,,2023-04-07_19h45.18.188,FaceAttractiveness,2022.2.5,143.1733514428723,
treatment,0% Never,100% Always,images\FOREHEAD_CFD_LM_203_026_N.png,0,0,0,0,5,47,522,14,,,,,,,,,,,,2023-04-07_19h45.18.188,FaceAttractiveness,2022.2.5,143.1733514428723,
treatment,0% Never,100% Always,images\ RCHEEK_CFD_AF_245_143_N.png,0,0,0,0,5,48,523,82,,,,,,,,,,,,2023-04-07_19h45.18.188,FaceAttractiveness,2022.2.5,143.1733514428723,
treatment,0% Never,100% Always,"images\ LIP_136_M_M_N_A.png
",0,0,0,0,5,49,524,41,,,,,,,,,,,,2023-04-07_19h45.18.188,FaceAttractiveness,2022.2.5,143.1733514428723,
treatment,0% Never,100% Always,images\FOREHEAD_CFD_AF_245_143_N.png,0,0,0,0,5,50,525,6,,,,,,,,,,,,2023-04-07_19h45.18.188,FaceAttractiveness,2022.2.5,143.1733514428723,
treatment,0% Never,100% Always,images\ LIP_CFD_WM_212_097_N.png,0,0,0,0,5,51,526,56,,,,,,,,,,,,2023-04-07_19h45.18.188,FaceAttractiveness,2022.2.5,143.1733514428723,
treatment,0% Never,100% Always,images\FOREHEAD_CFD_AF_231_357_N.png,0,0,0,0,5,52,527,4,,,,,,,,,,,,2023-04-07_19h45.18.188,FaceAttractiveness,2022.2.5,143.1733514428723,
treatment,0% Never,100% Always,images\FOREHEAD_006_M_F_N_A.png,0,0,0,0,5,53,528,0,,,,,,,,,,,,2023-04-07_19h45.18.188,FaceAttractiveness,2022.2.5,143.1733514428723,
treatment,0% Never,100% Always,images\ NASALTIP_CFD_LF_224_176_N.png,0,0,0,0,5,54,529,69,,,,,,,,,,,,2023-04-07_19h45.18.188,FaceAttractiveness,2022.2.5,143.1733514428723,
treatment,0% Never,100% Always,"images\ LIP_CFD_WF_002_004_N.png
",0,0,0,0,5,55,530,53,,,,,,,,,,,,2023-04-07_19h45.18.188,FaceAttractiveness,2022.2.5,143.1733514428723,
treatment,0% Never,100% Always,images\ LCHEEK_006_M_F_N_A.png,0,0,0,0,5,56,531,19,,,,,,,,,,,,2023-04-07_19h45.18.188,FaceAttractiveness,2022.2.5,143.1733514428723,
treatment,0% Never,100% Always,images\ LIP_CFD_WF_250_167_N.png,0,0,0,0,5,57,532,55,,,,,,,,,,,,2023-04-07_19h45.18.188,FaceAttractiveness,2022.2.5,143.1733514428723,
treatment,0% Never,100% Always,images\FOREHEAD_CFD_WF_200_099_N.png,0,0,0,0,5,58,533,16,,,,,,,,,,,,2023-04-07_19h45.18.188,FaceAttractiveness,2022.2.5,143.1733514428723,
treatment,0% Never,100% Always,images\ NASALTIP_CFD_BF_214_308_N.png,0,0,0,0,5,59,534,65,,,,,,,,,,,,2023-04-07_19h45.18.188,FaceAttractiveness,2022.2.5,143.1733514428723,
treatment,0% Never,100% Always,images\ RCHEEK_CFD_WF_250_167_N.png,0,0,0,0,5,60,535,93,,,,,,,,,,,,2023-04-07_19h45.18.188,FaceAttractiveness,2022.2.5,143.1733514428723,
treatment,0% Never,100% Always,"images\ NASALTIP_CFD_BM_234_172_N.png
",0,0,0,0,5,61,536,68,,,,,,,,,,,,2023-04-07_19h45.18.188,FaceAttractiveness,2022.2.5,143.1733514428723,
treatment,0% Never,100% Always,images\FOREHEAD_CFD_BF_214_308_N.png,0,0,0,0,5,62,537,8,,,,,,,,,,,,2023-04-07_19h45.18.188,FaceAttractiveness,2022.2.5,143.1733514428723,
treatment,0% Never,100% Always,images\ LCHEEK_CFD_AF_231_357_N.png,0,0,0,0,5,63,538,23,,,,,,,,,,,,2023-04-07_19h45.18.188,FaceAttractiveness,2022.2.5,143.1733514428723,
treatment,0% Never,100% Always,images\ LIP_035_M_F_N_A.png,0,0,0,0,5,64,539,39,,,,,,,,,,,,2023-04-07_19h45.18.188,FaceAttractiveness,2022.2.5,143.1733514428723,
treatment,0% Never,100% Always,images\ LIP_006_M_F_N_A.png,0,0,0,0,5,65,540,38,,,,,,,,,,,,2023-04-07_19h45.18.188,FaceAttractiveness,2022.2.5,143.1733514428723,
treatment,0% Never,100% Always,images\ RCHEEK_CFD_AF_237_223_N.png,0,0,0,0,5,66,541,81,,,,,,,,,,,,2023-04-07_19h45.18.188,FaceAttractiveness,2022.2.5,143.1733514428723,
treatment,0% Never,100% Always,"images\ RCHEEK_CFD_WF_002_004_N.png
",0,0,0,0,5,67,542,91,,,,,,,,,,,,2023-04-07_19h45.18.188,FaceAttractiveness,2022.2.5,143.1733514428723,
treatment,0% Never,100% Always,images\ NASALTIP_CFD_WM_212_097_N.png,0,0,0,0,5,68,543,75,,,,,,,,,,,,2023-04-07_19h45.18.188,FaceAttractiveness,2022.2.5,143.1733514428723,
treatment,0% Never,100% Always,"images\ LCHEEK_CFD_AM_233_236_N.png
",0,0,0,0,5,69,544,26,,,,,,,,,,,,2023-04-07_19h45.18.188,FaceAttractiveness,2022.2.5,143.1733514428723,
treatment,0% Never,100% Always,images\ RCHEEK_CFD_AF_231_357_N.png,0,0,0,0,5,70,545,80,,,,,,,,,,,,2023-04-07_19h45.18.188,FaceAttractiveness,2022.2.5,143.1733514428723,
treatment,0% Never,100% Always,"images\ LCHEEK_136_M_M_N_A.png
",0,0,0,0,5,71,546,22,,,,,,,,,,,,2023-04-07_19h45.18.188,FaceAttractiveness,2022.2.5,143.1733514428723,
treatment,0% Never,100% Always,images\ LCHEEK_CFD_WF_200_099_N.png,0,0,0,0,5,72,547,35,,,,,,,,,,,,2023-04-07_19h45.18.188,FaceAttractiveness,2022.2.5,143.1733514428723,
treatment,0% Never,100% Always,images\ LIP_CFD_AF_245_143_N.png,0,0,0,0,5,73,548,44,,,,,,,,,,,,2023-04-07_19h45.18.188,FaceAttractiveness,2022.2.5,143.1733514428723,
treatment,0% Never,100% Always,images\ NASALTIP_CFD_WF_200_099_N.png,0,0,0,0,5,74,549,73,,,,,,,,,,,,2023-04-07_19h45.18.188,FaceAttractiveness,2022.2.5,143.1733514428723,
treatment,0% Never,100% Always,images\ NASALTIP_087_M_M_N_A.png,0,0,0,0,5,75,550,59,,,,,,,,,,,,2023-04-07_19h45.18.188,FaceAttractiveness,2022.2.5,143.1733514428723,
treatment,0% Never,100% Always,images\ RCHEEK_CFD_BF_214_308_N.png,0,0,0,0,5,76,551,84,,,,,,,,,,,,2023-04-07_19h45.18.188,FaceAttractiveness,2022.2.5,143.1733514428723,
treatment,0% Never,100% Always,images\FOREHEAD_CFD_BM_234_172_N.png,0,0,0,0,5,77,552,11,,,,,,,,,,,,2023-04-07_19h45.18.188,FaceAttractiveness,2022.2.5,143.1733514428723,
treatment,0% Never,100% Always,images\ NASALTIP_CFD_LM_203_026_N.png,0,0,0,0,5,78,553,71,,,,,,,,,,,,2023-04-07_19h45.18.188,FaceAttractiveness,2022.2.5,143.1733514428723,
treatment,0% Never,100% Always,images\FOREHEAD_CFD_WF_002_004_N.png,0,0,0,0,5,79,554,15,,,,,,,,,,,,2023-04-07_19h45.18.188,FaceAttractiveness,2022.2.5,143.1733514428723,
treatment,0% Never,100% Always,images\FOREHEAD_CFD_WF_250_167_N.png,0,0,0,0,5,80,555,17,,,,,,,,,,,,2023-04-07_19h45.18.188,FaceAttractiveness,2022.2.5,143.1733514428723,
treatment,0% Never,100% Always,images\ RCHEEK_035_M_F_N_A.png,0,0,0,0,5,81,556,77,,,,,,,,,,,,2023-04-07_19h45.18.188,FaceAttractiveness,2022.2.5,143.1733514428723,
treatment,0% Never,100% Always,images\ LCHEEK_CFD_WF_250_167_N.png,0,0,0,0,5,82,557,36,,,,,,,,,,,,2023-04-07_19h45.18.188,FaceAttractiveness,2022.2.5,143.1733514428723,
treatment,0% Never,100% Always,images\ RCHEEK_006_M_F_N_A.png,0,0,0,0,5,83,558,76,,,,,,,,,,,,2023-04-07_19h45.18.188,FaceAttractiveness,2022.2.5,143.1733514428723,
treatment,0% Never,100% Always,"images\ RCHEEK_CFD_BM_234_172_N.png
",0,0,0,0,5,84,559,87,,,,,,,,,,,,2023-04-07_19h45.18.188,FaceAttractiveness,2022.2.5,143.1733514428723,
treatment,0% Never,100% Always,images\ RCHEEK_CFD_LM_201_057_N.png,0,0,0,0,5,85,560,89,,,,,,,,,,,,2023-04-07_19h45.18.188,FaceAttractiveness,2022.2.5,143.1733514428723,
treatment,0% Never,100% Always,images\ LCHEEK_CFD_LM_201_057_N.png,0,0,0,0,5,86,561,32,,,,,,,,,,,,2023-04-07_19h45.18.188,FaceAttractiveness,2022.2.5,143.1733514428723,
treatment,0% Never,100% Always,images\FOREHEAD_CFD_WM_212_097_N.png,0,0,0,0,5,87,562,18,,,,,,,,,,,,2023-04-07_19h45.18.188,FaceAttractiveness,2022.2.5,143.1733514428723,
treatment,0% Never,100% Always,images\FOREHEAD_CFD_LF_224_176_N.png,0,0,0,0,5,88,563,12,,,,,,,,,,,,2023-04-07_19h45.18.188,FaceAttractiveness,2022.2.5,143.1733514428723,
treatment,0% Never,100% Always,images\ NASALTIP_CFD_WF_250_167_N.png,0,0,0,0,5,89,564,74,,,,,,,,,,,,2023-04-07_19h45.18.188,FaceAttractiveness,2022.2.5,143.1733514428723,
treatment,0% Never,100% Always,images\ LCHEEK_035_M_F_N_A.png,0,0,0,0,5,90,565,20,,,,,,,,,,,,2023-04-07_19h45.18.188,FaceAttractiveness,2022.2.5,143.1733514428723,
treatment,0% Never,100% Always,images\ LIP_CFD_BM_213_134_N.png,0,0,0,0,5,91,566,48,,,,,,,,,,,,2023-04-07_19h45.18.188,FaceAttractiveness,2022.2.5,143.1733514428723,
treatment,0% Never,100% Always,images\FOREHEAD_087_M_M_N_A.png,0,0,0,0,5,92,567,2,,,,,,,,,,,,2023-04-07_19h45.18.188,FaceAttractiveness,2022.2.5,143.1733514428723,
treatment,0% Never,100% Always,images\ NASALTIP_CFD_AF_231_357_N.png,0,0,0,0,5,93,568,61,,,,,,,,,,,,2023-04-07_19h45.18.188,FaceAttractiveness,2022.2.5,143.1733514428723,
treatment,0% Never,100% Always,images\ RCHEEK_087_M_M_N_A.png,0,0,0,0,5,94,569,78,,,,,,,,,,,,2023-04-07_19h45.18.188,FaceAttractiveness,2022.2.5,143.1733514428723,
treatment,0% Never,100% Always,images\FOREHEAD_CFD_AF_237_223_N.png,0,0,0,0,6,0,570,5,,,,,,,,,,,,2023-04-07_19h45.18.188,FaceAttractiveness,2022.2.5,143.1733514428723,
treatment,0% Never,100% Always,images\FOREHEAD_CFD_AF_245_143_N.png,0,0,0,0,6,1,571,6,,,,,,,,,,,,2023-04-07_19h45.18.188,FaceAttractiveness,2022.2.5,143.1733514428723,
treatment,0% Never,100% Always,images\FOREHEAD_006_M_F_N_A.png,0,0,0,0,6,2,572,0,,,,,,,,,,,,2023-04-07_19h45.18.188,FaceAttractiveness,2022.2.5,143.1733514428723,
treatment,0% Never,100% Always,images\ RCHEEK_CFD_BF_224_002_N.png,0,0,0,0,6,3,573,85,,,,,,,,,,,,2023-04-07_19h45.18.188,FaceAttractiveness,2022.2.5,143.1733514428723,
treatment,0% Never,100% Always,images\ LCHEEK_CFD_LM_203_026_N.png,0,0,0,0,6,4,574,33,,,,,,,,,,,,2023-04-07_19h45.18.188,FaceAttractiveness,2022.2.5,143.1733514428723,
treatment,0% Never,100% Always,images\FOREHEAD_CFD_WM_212_097_N.png,0,0,0,0,6,5,575,18,,,,,,,,,,,,2023-04-07_19h45.18.188,FaceAttractiveness,2022.2.5,143.1733514428723,
treatment,0% Never,100% Always,images\ LIP_CFD_BM_213_134_N.png,0,0,0,0,6,6,576,48,,,,,,,,,,,,2023-04-07_19h45.18.188,FaceAttractiveness,2022.2.5,143.1733514428723,
treatment,0% Never,100% Always,images\ LIP_006_M_F_N_A.png,0,0,0,0,6,7,577,38,,,,,,,,,,,,2023-04-07_19h45.18.188,FaceAttractiveness,2022.2.5,143.1733514428723,
treatment,0% Never,100% Always,"images\ RCHEEK_CFD_AM_233_236_N.png
",0,0,0,0,6,8,578,83,,,,,,,,,,,,2023-04-07_19h45.18.188,FaceAttractiveness,2022.2.5,143.1733514428723,
treatment,0% Never,100% Always,images\ LCHEEK_CFD_WM_212_097_N.png,0,0,0,0,6,9,579,37,,,,,,,,,,,,2023-04-07_19h45.18.188,FaceAttractiveness,2022.2.5,143.1733514428723,
treatment,0% Never,100% Always,images\ RCHEEK_CFD_AF_237_223_N.png,0,0,0,0,6,10,580,81,,,,,,,,,,,,2023-04-07_19h45.18.188,FaceAttractiveness,2022.2.5,143.1733514428723,
treatment,0% Never,100% Always,images\ LCHEEK_CFD_LF_224_176_N.png,0,0,0,0,6,11,581,31,,,,,,,,,,,,2023-04-07_19h45.18.188,FaceAttractiveness,2022.2.5,143.1733514428723,
treatment,0% Never,100% Always,images\ RCHEEK_035_M_F_N_A.png,0,0,0,0,6,12,582,77,,,,,,,,,,,,2023-04-07_19h45.18.188,FaceAttractiveness,2022.2.5,143.1733514428723,
treatment,0% Never,100% Always,images\ NASALTIP_CFD_WF_200_099_N.png,0,0,0,0,6,13,583,73,,,,,,,,,,,,2023-04-07_19h45.18.188,FaceAttractiveness,2022.2.5,143.1733514428723,
treatment,0% Never,100% Always,images\ NASALTIP_CFD_LM_203_026_N.png,0,0,0,0,6,14,584,71,,,,,,,,,,,,2023-04-07_19h45.18.188,FaceAttractiveness,2022.2.5,143.1733514428723,
treatment,0% Never,100% Always,images\ LIP_CFD_LM_201_057_N.png,0,0,0,0,6,15,585,51,,,,,,,,,,,,2023-04-07_19h45.18.188,FaceAttractiveness,2022.2.5,143.1733514428723,
treatment,0% Never,100% Always,images\ LCHEEK_CFD_AF_245_143_N.png,0,0,0,0,6,16,586,25,,,,,,,,,,,,2023-04-07_19h45.18.188,FaceAttractiveness,2022.2.5,143.1733514428723,
treatment,0% Never,100% Always,images\ LCHEEK_CFD_BM_213_134_N.png,0,0,0,0,6,17,587,29,,,,,,,,,,,,2023-04-07_19h45.18.188,FaceAttractiveness,2022.2.5,143.1733514428723,
treatment,0% Never,100% Always,"images\ LCHEEK_CFD_WF_002_004_N.png
",0,0,0,0,6,18,588,34,,,,,,,,,,,,2023-04-07_19h45.18.188,FaceAttractiveness,2022.2.5,143.1733514428723,
treatment,0% Never,100% Always,images\ LIP_CFD_WF_250_167_N.png,0,0,0,0,6,19,589,55,,,,,,,,,,,,2023-04-07_19h45.18.188,FaceAttractiveness,2022.2.5,143.1733514428723,
treatment,0% Never,100% Always,images\ NASALTIP_CFD_BF_224_002_N.png,0,0,0,0,6,20,590,66,,,,,,,,,,,,2023-04-07_19h45.18.188,FaceAttractiveness,2022.2.5,143.1733514428723,
treatment,0% Never,100% Always,images\ LCHEEK_087_M_M_N_A.png,0,0,0,0,6,21,591,21,,,,,,,,,,,,2023-04-07_19h45.18.188,FaceAttractiveness,2022.2.5,143.1733514428723,
