Task,LeftLabel,RightLabel,faceImages,RatingBlockOrder.thisRepN,RatingBlockOrder.thisTrialN,RatingBlockOrder.thisN,RatingBlockOrder.thisIndex,originalFaceTrials.thisRepN,originalFaceTrials.thisTrialN,originalFaceTrials.thisN,originalFaceTrials.thisIndex,face_image_q.started,slider_trustworthy.started,text_trustworthy.started,slider_aggressive.started,text_aggressive.started,mouse_7.started,Confirm.started,Name,Gender,Age,Ethnicity,date,expName,psychopyVersion,frameRate,
treatment,0% Never,100% Always,images\ LCHEEK_CFD_WM_212_097_N.png,0,0,0,0,0,0,0,37,,,,,,,,,,,,2023-04-07_19h50.45.988,FaceAttractiveness,2022.2.5,144.85091218899765,
treatment,0% Never,100% Always,images\ LIP_CFD_LM_203_026_N.png,0,0,0,0,0,1,1,52,,,,,,,,,,,,2023-04-07_19h50.45.988,FaceAttractiveness,2022.2.5,144.85091218899765,
treatment,0% Never,100% Always,images\FOREHEAD_CFD_WM_212_097_N.png,0,0,0,0,0,2,2,18,,,,,,,,,,,,2023-04-07_19h50.45.988,FaceAttractiveness,2022.2.5,144.85091218899765,
treatment,0% Never,100% Always,images\FOREHEAD_CFD_BF_224_002_N.png,0,0,0,0,0,3,3,9,,,,,,,,,,,,2023-04-07_19h50.45.988,FaceAttractiveness,2022.2.5,144.85091218899765,
treatment,0% Never,100% Always,images\FOREHEAD_CFD_LF_224_176_N.png,0,0,0,0,0,4,4,12,,,,,,,,,,,,2023-04-07_19h50.45.988,FaceAttractiveness,2022.2.5,144.85091218899765,
treatment,0% Never,100% Always,images\ NASALTIP_CFD_LM_201_057_N.png,0,0,0,0,0,5,5,70,,,,,,,,,,,,2023-04-07_19h50.45.988,FaceAttractiveness,2022.2.5,144.85091218899765,
treatment,0% Never,100% Always,images\ RCHEEK_CFD_WM_212_097_N.png,0,0,0,0,0,6,6,94,,,,,,,,,,,,2023-04-07_19h50.45.988,FaceAttractiveness,2022.2.5,144.85091218899765,
treatment,0% Never,100% Always,"images\ RCHEEK_CFD_WF_002_004_N.png
",0,0,0,0,0,7,7,91,,,,,,,,,,,,2023-04-07_19h50.45.988,FaceAttractiveness,2022.2.5,144.85091218899765,
treatment,0% Never,100% Always,images\ LIP_CFD_BF_224_002_N.png,0,0,0,0,0,8,8,47,,,,,,,,,,,,2023-04-07_19h50.45.988,FaceAttractiveness,2022.2.5,144.85091218899765,
treatment,0% Never,100% Always,images\ RCHEEK_CFD_BM_213_134_N.png,0,0,0,0,0,9,9,86,,,,,,,,,,,,2023-04-07_19h50.45.988,FaceAttractiveness,2022.2.5,144.85091218899765,
treatment,0% Never,100% Always,images\ LCHEEK_CFD_LM_201_057_N.png,0,0,0,0,0,10,10,32,,,,,,,,,,,,2023-04-07_19h50.45.988,FaceAttractiveness,2022.2.5,144.85091218899765,
treatment,0% Never,100% Always,images\FOREHEAD_CFD_BF_214_308_N.png,0,0,0,0,0,11,11,8,,,,,,,,,,,,2023-04-07_19h50.45.988,FaceAttractiveness,2022.2.5,144.85091218899765,
treatment,0% Never,100% Always,images\FOREHEAD_006_M_F_N_A.png,0,0,0,0,0,12,12,0,,,,,,,,,,,,2023-04-07_19h50.45.988,FaceAttractiveness,2022.2.5,144.85091218899765,
treatment,0% Never,100% Always,images\ LIP_CFD_WF_200_099_N.png,0,0,0,0,0,13,13,54,,,,,,,,,,,,2023-04-07_19h50.45.988,FaceAttractiveness,2022.2.5,144.85091218899765,
treatment,0% Never,100% Always,images\ RCHEEK_CFD_BF_214_308_N.png,0,0,0,0,0,14,14,84,,,,,,,,,,,,2023-04-07_19h50.45.988,FaceAttractiveness,2022.2.5,144.85091218899765,
treatment,0% Never,100% Always,images\ LIP_CFD_WM_212_097_N.png,0,0,0,0,0,15,15,56,,,,,,,,,,,,2023-04-07_19h50.45.988,FaceAttractiveness,2022.2.5,144.85091218899765,
treatment,0% Never,100% Always,images\ RCHEEK_CFD_LM_201_057_N.png,0,0,0,0,0,16,16,89,,,,,,,,,,,,2023-04-07_19h50.45.988,FaceAttractiveness,2022.2.5,144.85091218899765,
treatment,0% Never,100% Always,images\ NASALTIP_006_M_F_N_A.png,0,0,0,0,0,17,17,57,,,,,,,,,,,,2023-04-07_19h50.45.988,FaceAttractiveness,2022.2.5,144.85091218899765,
treatment,0% Never,100% Always,"images\ LCHEEK_136_M_M_N_A.png
",0,0,0,0,0,18,18,22,,,,,,,,,,,,2023-04-07_19h50.45.988,FaceAttractiveness,2022.2.5,144.85091218899765,
treatment,0% Never,100% Always,"images\ LCHEEK_CFD_BM_234_172_N.png
",0,0,0,0,0,19,19,30,,,,,,,,,,,,2023-04-07_19h50.45.988,FaceAttractiveness,2022.2.5,144.85091218899765,
treatment,0% Never,100% Always,images\ NASALTIP_CFD_WM_212_097_N.png,0,0,0,0,0,20,20,75,,,,,,,,,,,,2023-04-07_19h50.45.988,FaceAttractiveness,2022.2.5,144.85091218899765,
treatment,0% Never,100% Always,"images\ NASALTIP_CFD_BM_234_172_N.png
",0,0,0,0,0,21,21,68,,,,,,,,,,,,2023-04-07_19h50.45.988,FaceAttractiveness,2022.2.5,144.85091218899765,
treatment,0% Never,100% Always,images\ LIP_087_M_M_N_A.png,0,0,0,0,0,22,22,40,,,,,,,,,,,,2023-04-07_19h50.45.988,FaceAttractiveness,2022.2.5,144.85091218899765,
treatment,0% Never,100% Always,images\ LIP_CFD_BM_213_134_N.png,0,0,0,0,0,23,23,48,,,,,,,,,,,,2023-04-07_19h50.45.988,FaceAttractiveness,2022.2.5,144.85091218899765,
treatment,0% Never,100% Always,images\ NASALTIP_035_M_F_N_A.png,0,0,0,0,0,24,24,58,,,,,,,,,,,,2023-04-07_19h50.45.988,FaceAttractiveness,2022.2.5,144.85091218899765,
treatment,0% Never,100% Always,images\ NASALTIP_CFD_AF_245_143_N.png,0,0,0,0,0,25,25,63,,,,,,,,,,,,2023-04-07_19h50.45.988,FaceAttractiveness,2022.2.5,144.85091218899765,
treatment,0% Never,100% Always,"images\ LIP_CFD_BM_234_172_N.png
",0,0,0,0,0,26,26,49,,,,,,,,,,,,2023-04-07_19h50.45.988,FaceAttractiveness,2022.2.5,144.85091218899765,
treatment,0% Never,100% Always,images\FOREHEAD_CFD_AF_245_143_N.png,0,0,0,0,0,27,27,6,,,,,,,,,,,,2023-04-07_19h50.45.988,FaceAttractiveness,2022.2.5,144.85091218899765,
treatment,0% Never,100% Always,images\ RCHEEK_CFD_AF_231_357_N.png,0,0,0,0,0,28,28,80,,,,,,,,,,,,2023-04-07_19h50.45.988,FaceAttractiveness,2022.2.5,144.85091218899765,
treatment,0% Never,100% Always,"images\ LIP_136_M_M_N_A.png
",0,0,0,0,0,29,29,41,,,,,,,,,,,,2023-04-07_19h50.45.988,FaceAttractiveness,2022.2.5,144.85091218899765,
treatment,0% Never,100% Always,images\ NASALTIP_CFD_LF_224_176_N.png,0,0,0,0,0,30,30,69,,,,,,,,,,,,2023-04-07_19h50.45.988,FaceAttractiveness,2022.2.5,144.85091218899765,
treatment,0% Never,100% Always,images\ LCHEEK_CFD_LM_203_026_N.png,0,0,0,0,0,31,31,33,,,,,,,,,,,,2023-04-07_19h50.45.988,FaceAttractiveness,2022.2.5,144.85091218899765,
treatment,0% Never,100% Always,images\ LIP_CFD_BF_214_308_N.png,0,0,0,0,0,32,32,46,,,,,,,,,,,,2023-04-07_19h50.45.988,FaceAttractiveness,2022.2.5,144.85091218899765,
treatment,0% Never,100% Always,"images\ LIP_CFD_AM_233_236_N.png
",0,0,0,0,0,33,33,45,,,,,,,,,,,,2023-04-07_19h50.45.988,FaceAttractiveness,2022.2.5,144.85091218899765,
treatment,0% Never,100% Always,"images\ LCHEEK_CFD_WF_002_004_N.png
",0,0,0,0,0,34,34,34,,,,,,,,,,,,2023-04-07_19h50.45.988,FaceAttractiveness,2022.2.5,144.85091218899765,
treatment,0% Never,100% Always,images\ LCHEEK_CFD_BM_213_134_N.png,0,0,0,0,0,35,35,29,,,,,,,,,,,,2023-04-07_19h50.45.988,FaceAttractiveness,2022.2.5,144.85091218899765,
treatment,0% Never,100% Always,images\ RCHEEK_CFD_WF_200_099_N.png,0,0,0,0,0,36,36,92,,,,,,,,,,,,2023-04-07_19h50.45.988,FaceAttractiveness,2022.2.5,144.85091218899765,
treatment,0% Never,100% Always,images\ NASALTIP_CFD_AF_237_223_N.png,0,0,0,0,0,37,37,62,,,,,,,,,,,,2023-04-07_19h50.45.988,FaceAttractiveness,2022.2.5,144.85091218899765,
treatment,0% Never,100% Always,images\FOREHEAD_CFD_WF_250_167_N.png,0,0,0,0,0,38,38,17,,,,,,,,,,,,2023-04-07_19h50.45.988,FaceAttractiveness,2022.2.5,144.85091218899765,
treatment,0% Never,100% Always,images\ NASALTIP_CFD_BF_214_308_N.png,0,0,0,0,0,39,39,65,,,,,,,,,,,,2023-04-07_19h50.45.988,FaceAttractiveness,2022.2.5,144.85091218899765,
treatment,0% Never,100% Always,images\ LCHEEK_CFD_WF_200_099_N.png,0,0,0,0,0,40,40,35,,,,,,,,,,,,2023-04-07_19h50.45.988,FaceAttractiveness,2022.2.5,144.85091218899765,
treatment,0% Never,100% Always,images\FOREHEAD_CFD_AM_233_236_N.png,0,0,0,0,0,41,41,7,,,,,,,,,,,,2023-04-07_19h50.45.988,FaceAttractiveness,2022.2.5,144.85091218899765,
treatment,0% Never,100% Always,images\ RCHEEK_006_M_F_N_A.png,0,0,0,0,0,42,42,76,,,,,,,,,,,,2023-04-07_19h50.45.988,FaceAttractiveness,2022.2.5,144.85091218899765,
treatment,0% Never,100% Always,images\FOREHEAD_087_M_M_N_A.png,0,0,0,0,0,43,43,2,,,,,,,,,,,,2023-04-07_19h50.45.988,FaceAttractiveness,2022.2.5,144.85091218899765,
treatment,0% Never,100% Always,"images\ NASALTIP_136_M_M_N_A.png
",0,0,0,0,0,44,44,60,,,,,,,,,,,,2023-04-07_19h50.45.988,FaceAttractiveness,2022.2.5,144.85091218899765,
treatment,0% Never,100% Always,images\FOREHEAD_CFD_LM_203_026_N.png,0,0,0,0,0,45,45,14,,,,,,,,,,,,2023-04-07_19h50.45.988,FaceAttractiveness,2022.2.5,144.85091218899765,
treatment,0% Never,100% Always,images\ LIP_006_M_F_N_A.png,0,0,0,0,0,46,46,38,,,,,,,,,,,,2023-04-07_19h50.45.988,FaceAttractiveness,2022.2.5,144.85091218899765,
treatment,0% Never,100% Always,images\ LCHEEK_CFD_BF_224_002_N.png,0,0,0,0,0,47,47,28,,,,,,,,,,,,2023-04-07_19h50.45.988,FaceAttractiveness,2022.2.5,144.85091218899765,
treatment,0% Never,100% Always,images\ LIP_CFD_LM_201_057_N.png,0,0,0,0,0,48,48,51,,,,,,,,,,,,2023-04-07_19h50.45.988,FaceAttractiveness,2022.2.5,144.85091218899765,
treatment,0% Never,100% Always,images\FOREHEAD_CFD_AF_231_357_N.png,0,0,0,0,0,49,49,4,,,,,,,,,,,,2023-04-07_19h50.45.988,FaceAttractiveness,2022.2.5,144.85091218899765,
treatment,0% Never,100% Always,images\ LIP_035_M_F_N_A.png,0,0,0,0,0,50,50,39,,,,,,,,,,,,2023-04-07_19h50.45.988,FaceAttractiveness,2022.2.5,144.85091218899765,
treatment,0% Never,100% Always,images\ RCHEEK_CFD_AF_237_223_N.png,0,0,0,0,0,51,51,81,,,,,,,,,,,,2023-04-07_19h50.45.988,FaceAttractiveness,2022.2.5,144.85091218899765,
treatment,0% Never,100% Always,images\FOREHEAD_CFD_LM_201_057_N.png,0,0,0,0,0,52,52,13,,,,,,,,,,,,2023-04-07_19h50.45.988,FaceAttractiveness,2022.2.5,144.85091218899765,
treatment,0% Never,100% Always,images\ LCHEEK_087_M_M_N_A.png,0,0,0,0,0,53,53,21,,,,,,,,,,,,2023-04-07_19h50.45.988,FaceAttractiveness,2022.2.5,144.85091218899765,
treatment,0% Never,100% Always,images\ LCHEEK_CFD_AF_231_357_N.png,0,0,0,0,0,54,54,23,,,,,,,,,,,,2023-04-07_19h50.45.988,FaceAttractiveness,2022.2.5,144.85091218899765,
treatment,0% Never,100% Always,images\ RCHEEK_CFD_AF_245_143_N.png,0,0,0,0,0,55,55,82,,,,,,,,,,,,2023-04-07_19h50.45.988,FaceAttractiveness,2022.2.5,144.85091218899765,
treatment,0% Never,100% Always,images\ RCHEEK_CFD_WF_250_167_N.png,0,0,0,0,0,56,56,93,,,,,,,,,,,,2023-04-07_19h50.45.988,FaceAttractiveness,2022.2.5,144.85091218899765,
treatment,0% Never,100% Always,images\ RCHEEK_CFD_BF_224_002_N.png,0,0,0,0,0,57,57,85,,,,,,,,,,,,2023-04-07_19h50.45.988,FaceAttractiveness,2022.2.5,144.85091218899765,
treatment,0% Never,100% Always,images\FOREHEAD_CFD_AF_237_223_N.png,0,0,0,0,0,58,58,5,,,,,,,,,,,,2023-04-07_19h50.45.988,FaceAttractiveness,2022.2.5,144.85091218899765,
treatment,0% Never,100% Always,images\ RCHEEK_035_M_F_N_A.png,0,0,0,0,0,59,59,77,,,,,,,,,,,,2023-04-07_19h50.45.988,FaceAttractiveness,2022.2.5,144.85091218899765,
treatment,0% Never,100% Always,images\ NASALTIP_CFD_WF_250_167_N.png,0,0,0,0,0,60,60,74,,,,,,,,,,,,2023-04-07_19h50.45.988,FaceAttractiveness,2022.2.5,144.85091218899765,
treatment,0% Never,100% Always,images\ NASALTIP_CFD_AF_231_357_N.png,0,0,0,0,0,61,61,61,,,,,,,,,,,,2023-04-07_19h50.45.988,FaceAttractiveness,2022.2.5,144.85091218899765,
treatment,0% Never,100% Always,images\ LIP_CFD_AF_231_357_N.png,0,0,0,0,0,62,62,42,,,,,,,,,,,,2023-04-07_19h50.45.988,FaceAttractiveness,2022.2.5,144.85091218899765,
treatment,0% Never,100% Always,images\ LCHEEK_035_M_F_N_A.png,0,0,0,0,0,63,63,20,,,,,,,,,,,,2023-04-07_19h50.45.988,FaceAttractiveness,2022.2.5,144.85091218899765,
treatment,0% Never,100% Always,images\ RCHEEK_CFD_LF_224_176_N.png,0,0,0,0,0,64,64,88,,,,,,,,,,,,2023-04-07_19h50.45.988,FaceAttractiveness,2022.2.5,144.85091218899765,
treatment,0% Never,100% Always,"images\ LIP_CFD_WF_002_004_N.png
",0,0,0,0,0,65,65,53,,,,,,,,,,,,2023-04-07_19h50.45.988,FaceAttractiveness,2022.2.5,144.85091218899765,
treatment,0% Never,100% Always,images\ NASALTIP_CFD_LM_203_026_N.png,0,0,0,0,0,66,66,71,,,,,,,,,,,,2023-04-07_19h50.45.988,FaceAttractiveness,2022.2.5,144.85091218899765,
treatment,0% Never,100% Always,images\FOREHEAD_CFD_BM_234_172_N.png,0,0,0,0,0,67,67,11,,,,,,,,,,,,2023-04-07_19h50.45.988,FaceAttractiveness,2022.2.5,144.85091218899765,
treatment,0% Never,100% Always,images\ NASALTIP_CFD_WF_200_099_N.png,0,0,0,0,0,68,68,73,,,,,,,,,,,,2023-04-07_19h50.45.988,FaceAttractiveness,2022.2.5,144.85091218899765,
treatment,0% Never,100% Always,images\FOREHEAD_CFD_WF_200_099_N.png,0,0,0,0,0,69,69,16,,,,,,,,,,,,2023-04-07_19h50.45.988,FaceAttractiveness,2022.2.5,144.85091218899765,
treatment,0% Never,100% Always,images\ LCHEEK_006_M_F_N_A.png,0,0,0,0,0,70,70,19,,,,,,,,,,,,2023-04-07_19h50.45.988,FaceAttractiveness,2022.2.5,144.85091218899765,
treatment,0% Never,100% Always,images\ LIP_CFD_WF_250_167_N.png,0,0,0,0,0,71,71,55,,,,,,,,,,,,2023-04-07_19h50.45.988,FaceAttractiveness,2022.2.5,144.85091218899765,
treatment,0% Never,100% Always,images\FOREHEAD_CFD_WF_002_004_N.png,0,0,0,0,0,72,72,15,,,,,,,,,,,,2023-04-07_19h50.45.988,FaceAttractiveness,2022.2.5,144.85091218899765,
treatment,0% Never,100% Always,images\ LCHEEK_CFD_AF_237_223_N.png,0,0,0,0,0,73,73,24,,,,,,,,,,,,2023-04-07_19h50.45.988,FaceAttractiveness,2022.2.5,144.85091218899765,
treatment,0% Never,100% Always,images\ RCHEEK_087_M_M_N_A.png,0,0,0,0,0,74,74,78,,,,,,,,,,,,2023-04-07_19h50.45.988,FaceAttractiveness,2022.2.5,144.85091218899765,
treatment,0% Never,100% Always,"images\ NASALTIP_CFD_AM_233_236_N.png
",0,0,0,0,0,75,75,64,,,,,,,,,,,,2023-04-07_19h50.45.988,FaceAttractiveness,2022.2.5,144.85091218899765,
treatment,0% Never,100% Always,images\FOREHEAD_CFD_BM_213_134_N.png,0,0,0,0,0,76,76,10,,,,,,,,,,,,2023-04-07_19h50.45.988,FaceAttractiveness,2022.2.5,144.85091218899765,
treatment,0% Never,100% Always,images\ LIP_CFD_LF_224_176_N.png,0,0,0,0,0,77,77,50,,,,,,,,,,,,2023-04-07_19h50.45.988,FaceAttractiveness,2022.2.5,144.85091218899765,
treatment,0% Never,100% Always,images\ NASALTIP_CFD_BF_224_002_N.png,0,0,0,0,0,78,78,66,,,,,,,,,,,,2023-04-07_19h50.45.988,FaceAttractiveness,2022.2.5,144.85091218899765,
treatment,0% Never,100% Always,"images\ NASALTIP_CFD_WF_002_004_N.png
",0,0,0,0,0,79,79,72,,,,,,,,,,,,2023-04-07_19h50.45.988,FaceAttractiveness,2022.2.5,144.85091218899765,
treatment,0% Never,100% Always,images\ LIP_CFD_AF_245_143_N.png,0,0,0,0,0,80,80,44,,,,,,,,,,,,2023-04-07_19h50.45.988,FaceAttractiveness,2022.2.5,144.85091218899765,
treatment,0% Never,100% Always,"images\ RCHEEK_136_M_M_N_A.png
",0,0,0,0,0,81,81,79,,,,,,,,,,,,2023-04-07_19h50.45.988,FaceAttractiveness,2022.2.5,144.85091218899765,
treatment,0% Never,100% Always,images\ LIP_CFD_AF_237_223_N.png,0,0,0,0,0,82,82,43,,,,,,,,,,,,2023-04-07_19h50.45.988,FaceAttractiveness,2022.2.5,144.85091218899765,
treatment,0% Never,100% Always,images\ LCHEEK_CFD_WF_250_167_N.png,0,0,0,0,0,83,83,36,,,,,,,,,,,,2023-04-07_19h50.45.988,FaceAttractiveness,2022.2.5,144.85091218899765,
treatment,0% Never,100% Always,images\ LCHEEK_CFD_AF_245_143_N.png,0,0,0,0,0,84,84,25,,,,,,,,,,,,2023-04-07_19h50.45.988,FaceAttractiveness,2022.2.5,144.85091218899765,
treatment,0% Never,100% Always,images\FOREHEAD_136_M_M_N_A.png,0,0,0,0,0,85,85,3,,,,,,,,,,,,2023-04-07_19h50.45.988,FaceAttractiveness,2022.2.5,144.85091218899765,
treatment,0% Never,100% Always,images\ NASALTIP_087_M_M_N_A.png,0,0,0,0,0,86,86,59,,,,,,,,,,,,2023-04-07_19h50.45.988,FaceAttractiveness,2022.2.5,144.85091218899765,
treatment,0% Never,100% Always,"images\ RCHEEK_CFD_AM_233_236_N.png
",0,0,0,0,0,87,87,83,,,,,,,,,,,,2023-04-07_19h50.45.988,FaceAttractiveness,2022.2.5,144.85091218899765,
treatment,0% Never,100% Always,images\ LCHEEK_CFD_LF_224_176_N.png,0,0,0,0,0,88,88,31,,,,,,,,,,,,2023-04-07_19h50.45.988,FaceAttractiveness,2022.2.5,144.85091218899765,
treatment,0% Never,100% Always,images\FOREHEAD_035_M_F_N_A.png,0,0,0,0,0,89,89,1,,,,,,,,,,,,2023-04-07_19h50.45.988,FaceAttractiveness,2022.2.5,144.85091218899765,
treatment,0% Never,100% Always,"images\ RCHEEK_CFD_BM_234_172_N.png
",0,0,0,0,0,90,90,87,,,,,,,,,,,,2023-04-07_19h50.45.988,FaceAttractiveness,2022.2.5,144.85091218899765,
treatment,0% Never,100% Always,images\ NASALTIP_CFD_BM_213_134_N.png,0,0,0,0,0,91,91,67,,,,,,,,,,,,2023-04-07_19h50.45.988,FaceAttractiveness,2022.2.5,144.85091218899765,
treatment,0% Never,100% Always,images\ RCHEEK_CFD_LM_203_026_N.png,0,0,0,0,0,92,92,90,,,,,,,,,,,,2023-04-07_19h50.45.988,FaceAttractiveness,2022.2.5,144.85091218899765,
treatment,0% Never,100% Always,images\ LCHEEK_CFD_BF_214_308_N.png,0,0,0,0,0,93,93,27,,,,,,,,,,,,2023-04-07_19h50.45.988,FaceAttractiveness,2022.2.5,144.85091218899765,
treatment,0% Never,100% Always,"images\ LCHEEK_CFD_AM_233_236_N.png
",0,0,0,0,0,94,94,26,,,,,,,,,,,,2023-04-07_19h50.45.988,FaceAttractiveness,2022.2.5,144.85091218899765,
treatment,0% Never,100% Always,"images\ RCHEEK_136_M_M_N_A.png
",0,0,0,0,1,0,95,79,,,,,,,,,,,,2023-04-07_19h50.45.988,FaceAttractiveness,2022.2.5,144.85091218899765,
treatment,0% Never,100% Always,images\ NASALTIP_CFD_AF_245_143_N.png,0,0,0,0,1,1,96,63,,,,,,,,,,,,2023-04-07_19h50.45.988,FaceAttractiveness,2022.2.5,144.85091218899765,
treatment,0% Never,100% Always,images\ LIP_CFD_LM_203_026_N.png,0,0,0,0,1,2,97,52,,,,,,,,,,,,2023-04-07_19h50.45.988,FaceAttractiveness,2022.2.5,144.85091218899765,
treatment,0% Never,100% Always,images\ LIP_CFD_AF_231_357_N.png,0,0,0,0,1,3,98,42,,,,,,,,,,,,2023-04-07_19h50.45.988,FaceAttractiveness,2022.2.5,144.85091218899765,
treatment,0% Never,100% Always,images\ LIP_CFD_LM_201_057_N.png,0,0,0,0,1,4,99,51,,,,,,,,,,,,2023-04-07_19h50.45.988,FaceAttractiveness,2022.2.5,144.85091218899765,
treatment,0% Never,100% Always,"images\ RCHEEK_CFD_AM_233_236_N.png
",0,0,0,0,1,5,100,83,,,,,,,,,,,,2023-04-07_19h50.45.988,FaceAttractiveness,2022.2.5,144.85091218899765,
treatment,0% Never,100% Always,images\ RCHEEK_035_M_F_N_A.png,0,0,0,0,1,6,101,77,,,,,,,,,,,,2023-04-07_19h50.45.988,FaceAttractiveness,2022.2.5,144.85091218899765,
treatment,0% Never,100% Always,images\ LIP_CFD_BM_213_134_N.png,0,0,0,0,1,7,102,48,,,,,,,,,,,,2023-04-07_19h50.45.988,FaceAttractiveness,2022.2.5,144.85091218899765,
treatment,0% Never,100% Always,"images\ LCHEEK_136_M_M_N_A.png
",0,0,0,0,1,8,103,22,,,,,,,,,,,,2023-04-07_19h50.45.988,FaceAttractiveness,2022.2.5,144.85091218899765,
treatment,0% Never,100% Always,images\ NASALTIP_CFD_AF_237_223_N.png,0,0,0,0,1,9,104,62,,,,,,,,,,,,2023-04-07_19h50.45.988,FaceAttractiveness,2022.2.5,144.85091218899765,
treatment,0% Never,100% Always,"images\ NASALTIP_CFD_BM_234_172_N.png
",0,0,0,0,1,10,105,68,,,,,,,,,,,,2023-04-07_19h50.45.988,FaceAttractiveness,2022.2.5,144.85091218899765,
treatment,0% Never,100% Always,"images\ LCHEEK_CFD_BM_234_172_N.png
",0,0,0,0,1,11,106,30,,,,,,,,,,,,2023-04-07_19h50.45.988,FaceAttractiveness,2022.2.5,144.85091218899765,
treatment,0% Never,100% Always,images\FOREHEAD_CFD_AM_233_236_N.png,0,0,0,0,1,12,107,7,,,,,,,,,,,,2023-04-07_19h50.45.988,FaceAttractiveness,2022.2.5,144.85091218899765,
treatment,0% Never,100% Always,"images\ NASALTIP_CFD_AM_233_236_N.png
",0,0,0,0,1,13,108,64,,,,,,,,,,,,2023-04-07_19h50.45.988,FaceAttractiveness,2022.2.5,144.85091218899765,
treatment,0% Never,100% Always,images\ NASALTIP_006_M_F_N_A.png,0,0,0,0,1,14,109,57,,,,,,,,,,,,2023-04-07_19h50.45.988,FaceAttractiveness,2022.2.5,144.85091218899765,
treatment,0% Never,100% Always,images\ LIP_CFD_WF_200_099_N.png,0,0,0,0,1,15,110,54,,,,,,,,,,,,2023-04-07_19h50.45.988,FaceAttractiveness,2022.2.5,144.85091218899765,
treatment,0% Never,100% Always,images\ LCHEEK_CFD_AF_237_223_N.png,0,0,0,0,1,16,111,24,,,,,,,,,,,,2023-04-07_19h50.45.988,FaceAttractiveness,2022.2.5,144.85091218899765,
treatment,0% Never,100% Always,images\ LCHEEK_CFD_AF_231_357_N.png,0,0,0,0,1,17,112,23,,,,,,,,,,,,2023-04-07_19h50.45.988,FaceAttractiveness,2022.2.5,144.85091218899765,
treatment,0% Never,100% Always,images\FOREHEAD_035_M_F_N_A.png,0,0,0,0,1,18,113,1,,,,,,,,,,,,2023-04-07_19h50.45.988,FaceAttractiveness,2022.2.5,144.85091218899765,
treatment,0% Never,100% Always,images\ NASALTIP_CFD_BM_213_134_N.png,0,0,0,0,1,19,114,67,,,,,,,,,,,,2023-04-07_19h50.45.988,FaceAttractiveness,2022.2.5,144.85091218899765,
treatment,0% Never,100% Always,images\ LCHEEK_087_M_M_N_A.png,0,0,0,0,1,20,115,21,,,,,,,,,,,,2023-04-07_19h50.45.988,FaceAttractiveness,2022.2.5,144.85091218899765,
treatment,0% Never,100% Always,images\ LIP_087_M_M_N_A.png,0,0,0,0,1,21,116,40,,,,,,,,,,,,2023-04-07_19h50.45.988,FaceAttractiveness,2022.2.5,144.85091218899765,
treatment,0% Never,100% Always,images\ LCHEEK_CFD_WF_250_167_N.png,0,0,0,0,1,22,117,36,,,,,,,,,,,,2023-04-07_19h50.45.988,FaceAttractiveness,2022.2.5,144.85091218899765,
treatment,0% Never,100% Always,images\FOREHEAD_CFD_BM_213_134_N.png,0,0,0,0,1,23,118,10,,,,,,,,,,,,2023-04-07_19h50.45.988,FaceAttractiveness,2022.2.5,144.85091218899765,
treatment,0% Never,100% Always,images\FOREHEAD_087_M_M_N_A.png,0,0,0,0,1,24,119,2,,,,,,,,,,,,2023-04-07_19h50.45.988,FaceAttractiveness,2022.2.5,144.85091218899765,
treatment,0% Never,100% Always,images\FOREHEAD_CFD_AF_245_143_N.png,0,0,0,0,1,25,120,6,,,,,,,,,,,,2023-04-07_19h50.45.988,FaceAttractiveness,2022.2.5,144.85091218899765,
treatment,0% Never,100% Always,images\FOREHEAD_CFD_BF_224_002_N.png,0,0,0,0,1,26,121,9,,,,,,,,,,,,2023-04-07_19h50.45.988,FaceAttractiveness,2022.2.5,144.85091218899765,
treatment,0% Never,100% Always,images\ LCHEEK_CFD_WF_200_099_N.png,0,0,0,0,1,27,122,35,,,,,,,,,,,,2023-04-07_19h50.45.988,FaceAttractiveness,2022.2.5,144.85091218899765,
treatment,0% Never,100% Always,"images\ LIP_CFD_BM_234_172_N.png
",0,0,0,0,1,28,123,49,,,,,,,,,,,,2023-04-07_19h50.45.988,FaceAttractiveness,2022.2.5,144.85091218899765,
treatment,0% Never,100% Always,images\FOREHEAD_CFD_BF_214_308_N.png,0,0,0,0,1,29,124,8,,,,,,,,,,,,2023-04-07_19h50.45.988,FaceAttractiveness,2022.2.5,144.85091218899765,
treatment,0% Never,100% Always,images\FOREHEAD_CFD_WF_002_004_N.png,0,0,0,0,1,30,125,15,,,,,,,,,,,,2023-04-07_19h50.45.988,FaceAttractiveness,2022.2.5,144.85091218899765,
treatment,0% Never,100% Always,images\ LIP_CFD_WF_250_167_N.png,0,0,0,0,1,31,126,55,,,,,,,,,,,,2023-04-07_19h50.45.988,FaceAttractiveness,2022.2.5,144.85091218899765,
treatment,0% Never,100% Always,images\ LCHEEK_CFD_LM_203_026_N.png,0,0,0,0,1,32,127,33,,,,,,,,,,,,2023-04-07_19h50.45.988,FaceAttractiveness,2022.2.5,144.85091218899765,
treatment,0% Never,100% Always,images\ RCHEEK_CFD_WF_250_167_N.png,0,0,0,0,1,33,128,93,,,,,,,,,,,,2023-04-07_19h50.45.988,FaceAttractiveness,2022.2.5,144.85091218899765,
treatment,0% Never,100% Always,images\ RCHEEK_CFD_WM_212_097_N.png,0,0,0,0,1,34,129,94,,,,,,,,,,,,2023-04-07_19h50.45.988,FaceAttractiveness,2022.2.5,144.85091218899765,
treatment,0% Never,100% Always,images\ NASALTIP_CFD_LM_203_026_N.png,0,0,0,0,1,35,130,71,,,,,,,,,,,,2023-04-07_19h50.45.988,FaceAttractiveness,2022.2.5,144.85091218899765,
treatment,0% Never,100% Always,images\ NASALTIP_CFD_WF_200_099_N.png,0,0,0,0,1,36,131,73,,,,,,,,,,,,2023-04-07_19h50.45.988,FaceAttractiveness,2022.2.5,144.85091218899765,
treatment,0% Never,100% Always,images\ LIP_CFD_LF_224_176_N.png,0,0,0,0,1,37,132,50,,,,,,,,,,,,2023-04-07_19h50.45.988,FaceAttractiveness,2022.2.5,144.85091218899765,
treatment,0% Never,100% Always,images\ NASALTIP_CFD_AF_231_357_N.png,0,0,0,0,1,38,133,61,,,,,,,,,,,,2023-04-07_19h50.45.988,FaceAttractiveness,2022.2.5,144.85091218899765,
treatment,0% Never,100% Always,images\FOREHEAD_006_M_F_N_A.png,0,0,0,0,1,39,134,0,,,,,,,,,,,,2023-04-07_19h50.45.988,FaceAttractiveness,2022.2.5,144.85091218899765,
treatment,0% Never,100% Always,images\ RCHEEK_CFD_AF_237_223_N.png,0,0,0,0,1,40,135,81,,,,,,,,,,,,2023-04-07_19h50.45.988,FaceAttractiveness,2022.2.5,144.85091218899765,
treatment,0% Never,100% Always,images\ RCHEEK_006_M_F_N_A.png,0,0,0,0,1,41,136,76,,,,,,,,,,,,2023-04-07_19h50.45.988,FaceAttractiveness,2022.2.5,144.85091218899765,
treatment,0% Never,100% Always,images\ LIP_CFD_AF_237_223_N.png,0,0,0,0,1,42,137,43,,,,,,,,,,,,2023-04-07_19h50.45.988,FaceAttractiveness,2022.2.5,144.85091218899765,
treatment,0% Never,100% Always,images\ NASALTIP_CFD_WF_250_167_N.png,0,0,0,0,1,43,138,74,,,,,,,,,,,,2023-04-07_19h50.45.988,FaceAttractiveness,2022.2.5,144.85091218899765,
treatment,0% Never,100% Always,images\ NASALTIP_087_M_M_N_A.png,0,0,0,0,1,44,139,59,,,,,,,,,,,,2023-04-07_19h50.45.988,FaceAttractiveness,2022.2.5,144.85091218899765,
treatment,0% Never,100% Always,"images\ LIP_CFD_AM_233_236_N.png
",0,0,0,0,1,45,140,45,,,,,,,,,,,,2023-04-07_19h50.45.988,FaceAttractiveness,2022.2.5,144.85091218899765,
treatment,0% Never,100% Always,images\ LCHEEK_CFD_AF_245_143_N.png,0,0,0,0,1,46,141,25,,,,,,,,,,,,2023-04-07_19h50.45.988,FaceAttractiveness,2022.2.5,144.85091218899765,
treatment,0% Never,100% Always,images\ LIP_CFD_WM_212_097_N.png,0,0,0,0,1,47,142,56,,,,,,,,,,,,2023-04-07_19h50.45.988,FaceAttractiveness,2022.2.5,144.85091218899765,
treatment,0% Never,100% Always,images\ LIP_CFD_BF_214_308_N.png,0,0,0,0,1,48,143,46,,,,,,,,,,,,2023-04-07_19h50.45.988,FaceAttractiveness,2022.2.5,144.85091218899765,
treatment,0% Never,100% Always,images\ RCHEEK_CFD_LF_224_176_N.png,0,0,0,0,1,49,144,88,,,,,,,,,,,,2023-04-07_19h50.45.988,FaceAttractiveness,2022.2.5,144.85091218899765,
treatment,0% Never,100% Always,images\ RCHEEK_087_M_M_N_A.png,0,0,0,0,1,50,145,78,,,,,,,,,,,,2023-04-07_19h50.45.988,FaceAttractiveness,2022.2.5,144.85091218899765,
treatment,0% Never,100% Always,images\ NASALTIP_CFD_LF_224_176_N.png,0,0,0,0,1,51,146,69,,,,,,,,,,,,2023-04-07_19h50.45.988,FaceAttractiveness,2022.2.5,144.85091218899765,
treatment,0% Never,100% Always,images\ LIP_006_M_F_N_A.png,0,0,0,0,1,52,147,38,,,,,,,,,,,,2023-04-07_19h50.45.988,FaceAttractiveness,2022.2.5,144.85091218899765,
treatment,0% Never,100% Always,images\ LCHEEK_CFD_LF_224_176_N.png,0,0,0,0,1,53,148,31,,,,,,,,,,,,2023-04-07_19h50.45.988,FaceAttractiveness,2022.2.5,144.85091218899765,
treatment,0% Never,100% Always,images\ NASALTIP_CFD_BF_224_002_N.png,0,0,0,0,1,54,149,66,,,,,,,,,,,,2023-04-07_19h50.45.988,FaceAttractiveness,2022.2.5,144.85091218899765,
treatment,0% Never,100% Always,images\ LCHEEK_CFD_WM_212_097_N.png,0,0,0,0,1,55,150,37,,,,,,,,,,,,2023-04-07_19h50.45.988,FaceAttractiveness,2022.2.5,144.85091218899765,
treatment,0% Never,100% Always,images\FOREHEAD_CFD_LF_224_176_N.png,0,0,0,0,1,56,151,12,,,,,,,,,,,,2023-04-07_19h50.45.988,FaceAttractiveness,2022.2.5,144.85091218899765,
treatment,0% Never,100% Always,images\ RCHEEK_CFD_BF_224_002_N.png,0,0,0,0,1,57,152,85,,,,,,,,,,,,2023-04-07_19h50.45.988,FaceAttractiveness,2022.2.5,144.85091218899765,
treatment,0% Never,100% Always,images\ RCHEEK_CFD_WF_200_099_N.png,0,0,0,0,1,58,153,92,,,,,,,,,,,,2023-04-07_19h50.45.988,FaceAttractiveness,2022.2.5,144.85091218899765,
treatment,0% Never,100% Always,images\FOREHEAD_CFD_WF_250_167_N.png,0,0,0,0,1,59,154,17,,,,,,,,,,,,2023-04-07_19h50.45.988,FaceAttractiveness,2022.2.5,144.85091218899765,
treatment,0% Never,100% Always,images\ NASALTIP_CFD_WM_212_097_N.png,0,0,0,0,1,60,155,75,,,,,,,,,,,,2023-04-07_19h50.45.988,FaceAttractiveness,2022.2.5,144.85091218899765,
treatment,0% Never,100% Always,images\FOREHEAD_136_M_M_N_A.png,0,0,0,0,1,61,156,3,,,,,,,,,,,,2023-04-07_19h50.45.988,FaceAttractiveness,2022.2.5,144.85091218899765,
treatment,0% Never,100% Always,images\ RCHEEK_CFD_AF_231_357_N.png,0,0,0,0,1,62,157,80,,,,,,,,,,,,2023-04-07_19h50.45.988,FaceAttractiveness,2022.2.5,144.85091218899765,
treatment,0% Never,100% Always,images\ RCHEEK_CFD_BM_213_134_N.png,0,0,0,0,1,63,158,86,,,,,,,,,,,,2023-04-07_19h50.45.988,FaceAttractiveness,2022.2.5,144.85091218899765,
treatment,0% Never,100% Always,"images\ NASALTIP_136_M_M_N_A.png
",0,0,0,0,1,64,159,60,,,,,,,,,,,,2023-04-07_19h50.45.988,FaceAttractiveness,2022.2.5,144.85091218899765,
treatment,0% Never,100% Always,"images\ LCHEEK_CFD_WF_002_004_N.png
",0,0,0,0,1,65,160,34,,,,,,,,,,,,2023-04-07_19h50.45.988,FaceAttractiveness,2022.2.5,144.85091218899765,
treatment,0% Never,100% Always,images\ LCHEEK_035_M_F_N_A.png,0,0,0,0,1,66,161,20,,,,,,,,,,,,2023-04-07_19h50.45.988,FaceAttractiveness,2022.2.5,144.85091218899765,
treatment,0% Never,100% Always,images\FOREHEAD_CFD_AF_237_223_N.png,0,0,0,0,1,67,162,5,,,,,,,,,,,,2023-04-07_19h50.45.988,FaceAttractiveness,2022.2.5,144.85091218899765,
treatment,0% Never,100% Always,images\ RCHEEK_CFD_BF_214_308_N.png,0,0,0,0,1,68,163,84,,,,,,,,,,,,2023-04-07_19h50.45.988,FaceAttractiveness,2022.2.5,144.85091218899765,
treatment,0% Never,100% Always,images\ LCHEEK_006_M_F_N_A.png,0,0,0,0,1,69,164,19,,,,,,,,,,,,2023-04-07_19h50.45.988,FaceAttractiveness,2022.2.5,144.85091218899765,
treatment,0% Never,100% Always,"images\ RCHEEK_CFD_BM_234_172_N.png
",0,0,0,0,1,70,165,87,,,,,,,,,,,,2023-04-07_19h50.45.988,FaceAttractiveness,2022.2.5,144.85091218899765,
treatment,0% Never,100% Always,images\FOREHEAD_CFD_LM_203_026_N.png,0,0,0,0,1,71,166,14,,,,,,,,,,,,2023-04-07_19h50.45.988,FaceAttractiveness,2022.2.5,144.85091218899765,
treatment,0% Never,100% Always,images\ RCHEEK_CFD_LM_203_026_N.png,0,0,0,0,1,72,167,90,,,,,,,,,,,,2023-04-07_19h50.45.988,FaceAttractiveness,2022.2.5,144.85091218899765,
treatment,0% Never,100% Always,images\ NASALTIP_CFD_LM_201_057_N.png,0,0,0,0,1,73,168,70,,,,,,,,,,,,2023-04-07_19h50.45.988,FaceAttractiveness,2022.2.5,144.85091218899765,
treatment,0% Never,100% Always,images\ RCHEEK_CFD_LM_201_057_N.png,0,0,0,0,1,74,169,89,,,,,,,,,,,,2023-04-07_19h50.45.988,FaceAttractiveness,2022.2.5,144.85091218899765,
treatment,0% Never,100% Always,"images\ NASALTIP_CFD_WF_002_004_N.png
",0,0,0,0,1,75,170,72,,,,,,,,,,,,2023-04-07_19h50.45.988,FaceAttractiveness,2022.2.5,144.85091218899765,
treatment,0% Never,100% Always,images\ LCHEEK_CFD_LM_201_057_N.png,0,0,0,0,1,76,171,32,,,,,,,,,,,,2023-04-07_19h50.45.988,FaceAttractiveness,2022.2.5,144.85091218899765,
treatment,0% Never,100% Always,images\FOREHEAD_CFD_BM_234_172_N.png,0,0,0,0,1,77,172,11,,,,,,,,,,,,2023-04-07_19h50.45.988,FaceAttractiveness,2022.2.5,144.85091218899765,
treatment,0% Never,100% Always,"images\ LIP_136_M_M_N_A.png
",0,0,0,0,1,78,173,41,,,,,,,,,,,,2023-04-07_19h50.45.988,FaceAttractiveness,2022.2.5,144.85091218899765,
treatment,0% Never,100% Always,"images\ LIP_CFD_WF_002_004_N.png
",0,0,0,0,1,79,174,53,,,,,,,,,,,,2023-04-07_19h50.45.988,FaceAttractiveness,2022.2.5,144.85091218899765,
treatment,0% Never,100% Always,images\FOREHEAD_CFD_WM_212_097_N.png,0,0,0,0,1,80,175,18,,,,,,,,,,,,2023-04-07_19h50.45.988,FaceAttractiveness,2022.2.5,144.85091218899765,
treatment,0% Never,100% Always,images\ LCHEEK_CFD_BF_224_002_N.png,0,0,0,0,1,81,176,28,,,,,,,,,,,,2023-04-07_19h50.45.988,FaceAttractiveness,2022.2.5,144.85091218899765,
treatment,0% Never,100% Always,images\ LIP_CFD_BF_224_002_N.png,0,0,0,0,1,82,177,47,,,,,,,,,,,,2023-04-07_19h50.45.988,FaceAttractiveness,2022.2.5,144.85091218899765,
treatment,0% Never,100% Always,images\ RCHEEK_CFD_AF_245_143_N.png,0,0,0,0,1,83,178,82,,,,,,,,,,,,2023-04-07_19h50.45.988,FaceAttractiveness,2022.2.5,144.85091218899765,
treatment,0% Never,100% Always,images\FOREHEAD_CFD_WF_200_099_N.png,0,0,0,0,1,84,179,16,,,,,,,,,,,,2023-04-07_19h50.45.988,FaceAttractiveness,2022.2.5,144.85091218899765,
treatment,0% Never,100% Always,"images\ LCHEEK_CFD_AM_233_236_N.png
",0,0,0,0,1,85,180,26,,,,,,,,,,,,2023-04-07_19h50.45.988,FaceAttractiveness,2022.2.5,144.85091218899765,
treatment,0% Never,100% Always,images\FOREHEAD_CFD_LM_201_057_N.png,0,0,0,0,1,86,181,13,,,,,,,,,,,,2023-04-07_19h50.45.988,FaceAttractiveness,2022.2.5,144.85091218899765,
treatment,0% Never,100% Always,images\ LCHEEK_CFD_BM_213_134_N.png,0,0,0,0,1,87,182,29,,,,,,,,,,,,2023-04-07_19h50.45.988,FaceAttractiveness,2022.2.5,144.85091218899765,
treatment,0% Never,100% Always,images\ LCHEEK_CFD_BF_214_308_N.png,0,0,0,0,1,88,183,27,,,,,,,,,,,,2023-04-07_19h50.45.988,FaceAttractiveness,2022.2.5,144.85091218899765,
treatment,0% Never,100% Always,images\ NASALTIP_035_M_F_N_A.png,0,0,0,0,1,89,184,58,,,,,,,,,,,,2023-04-07_19h50.45.988,FaceAttractiveness,2022.2.5,144.85091218899765,
treatment,0% Never,100% Always,images\ LIP_CFD_AF_245_143_N.png,0,0,0,0,1,90,185,44,,,,,,,,,,,,2023-04-07_19h50.45.988,FaceAttractiveness,2022.2.5,144.85091218899765,
treatment,0% Never,100% Always,images\ LIP_035_M_F_N_A.png,0,0,0,0,1,91,186,39,,,,,,,,,,,,2023-04-07_19h50.45.988,FaceAttractiveness,2022.2.5,144.85091218899765,
treatment,0% Never,100% Always,images\ NASALTIP_CFD_BF_214_308_N.png,0,0,0,0,1,92,187,65,,,,,,,,,,,,2023-04-07_19h50.45.988,FaceAttractiveness,2022.2.5,144.85091218899765,
treatment,0% Never,100% Always,"images\ RCHEEK_CFD_WF_002_004_N.png
",0,0,0,0,1,93,188,91,,,,,,,,,,,,2023-04-07_19h50.45.988,FaceAttractiveness,2022.2.5,144.85091218899765,
treatment,0% Never,100% Always,images\FOREHEAD_CFD_AF_231_357_N.png,0,0,0,0,1,94,189,4,,,,,,,,,,,,2023-04-07_19h50.45.988,FaceAttractiveness,2022.2.5,144.85091218899765,
treatment,0% Never,100% Always,images\FOREHEAD_CFD_BM_234_172_N.png,0,0,0,0,2,0,190,11,,,,,,,,,,,,2023-04-07_19h50.45.988,FaceAttractiveness,2022.2.5,144.85091218899765,
treatment,0% Never,100% Always,images\ LCHEEK_CFD_LM_201_057_N.png,0,0,0,0,2,1,191,32,,,,,,,,,,,,2023-04-07_19h50.45.988,FaceAttractiveness,2022.2.5,144.85091218899765,
treatment,0% Never,100% Always,images\ LCHEEK_006_M_F_N_A.png,0,0,0,0,2,2,192,19,,,,,,,,,,,,2023-04-07_19h50.45.988,FaceAttractiveness,2022.2.5,144.85091218899765,
treatment,0% Never,100% Always,"images\ NASALTIP_CFD_AM_233_236_N.png
",0,0,0,0,2,3,193,64,,,,,,,,,,,,2023-04-07_19h50.45.988,FaceAttractiveness,2022.2.5,144.85091218899765,
treatment,0% Never,100% Always,images\ LIP_CFD_LF_224_176_N.png,0,0,0,0,2,4,194,50,,,,,,,,,,,,2023-04-07_19h50.45.988,FaceAttractiveness,2022.2.5,144.85091218899765,
treatment,0% Never,100% Always,images\ LCHEEK_035_M_F_N_A.png,0,0,0,0,2,5,195,20,,,,,,,,,,,,2023-04-07_19h50.45.988,FaceAttractiveness,2022.2.5,144.85091218899765,
treatment,0% Never,100% Always,images\ RCHEEK_CFD_LM_203_026_N.png,0,0,0,0,2,6,196,90,,,,,,,,,,,,2023-04-07_19h50.45.988,FaceAttractiveness,2022.2.5,144.85091218899765,
treatment,0% Never,100% Always,images\ RCHEEK_CFD_AF_237_223_N.png,0,0,0,0,2,7,197,81,,,,,,,,,,,,2023-04-07_19h50.45.988,FaceAttractiveness,2022.2.5,144.85091218899765,
treatment,0% Never,100% Always,images\FOREHEAD_087_M_M_N_A.png,0,0,0,0,2,8,198,2,,,,,,,,,,,,2023-04-07_19h50.45.988,FaceAttractiveness,2022.2.5,144.85091218899765,
treatment,0% Never,100% Always,images\ RCHEEK_006_M_F_N_A.png,0,0,0,0,2,9,199,76,,,,,,,,,,,,2023-04-07_19h50.45.988,FaceAttractiveness,2022.2.5,144.85091218899765,
treatment,0% Never,100% Always,images\FOREHEAD_136_M_M_N_A.png,0,0,0,0,2,10,200,3,,,,,,,,,,,,2023-04-07_19h50.45.988,FaceAttractiveness,2022.2.5,144.85091218899765,
treatment,0% Never,100% Always,images\ NASALTIP_CFD_BM_213_134_N.png,0,0,0,0,2,11,201,67,,,,,,,,,,,,2023-04-07_19h50.45.988,FaceAttractiveness,2022.2.5,144.85091218899765,
treatment,0% Never,100% Always,images\ NASALTIP_006_M_F_N_A.png,0,0,0,0,2,12,202,57,,,,,,,,,,,,2023-04-07_19h50.45.988,FaceAttractiveness,2022.2.5,144.85091218899765,
treatment,0% Never,100% Always,images\FOREHEAD_CFD_AF_245_143_N.png,0,0,0,0,2,13,203,6,,,,,,,,,,,,2023-04-07_19h50.45.988,FaceAttractiveness,2022.2.5,144.85091218899765,
treatment,0% Never,100% Always,images\FOREHEAD_CFD_LF_224_176_N.png,0,0,0,0,2,14,204,12,,,,,,,,,,,,2023-04-07_19h50.45.988,FaceAttractiveness,2022.2.5,144.85091218899765,
treatment,0% Never,100% Always,images\ NASALTIP_CFD_AF_231_357_N.png,0,0,0,0,2,15,205,61,,,,,,,,,,,,2023-04-07_19h50.45.988,FaceAttractiveness,2022.2.5,144.85091218899765,
treatment,0% Never,100% Always,images\ RCHEEK_CFD_BF_224_002_N.png,0,0,0,0,2,16,206,85,,,,,,,,,,,,2023-04-07_19h50.45.988,FaceAttractiveness,2022.2.5,144.85091218899765,
treatment,0% Never,100% Always,images\FOREHEAD_CFD_BF_214_308_N.png,0,0,0,0,2,17,207,8,,,,,,,,,,,,2023-04-07_19h50.45.988,FaceAttractiveness,2022.2.5,144.85091218899765,
treatment,0% Never,100% Always,images\ RCHEEK_CFD_BM_213_134_N.png,0,0,0,0,2,18,208,86,,,,,,,,,,,,2023-04-07_19h50.45.988,FaceAttractiveness,2022.2.5,144.85091218899765,
treatment,0% Never,100% Always,images\ LIP_CFD_BF_224_002_N.png,0,0,0,0,2,19,209,47,,,,,,,,,,,,2023-04-07_19h50.45.988,FaceAttractiveness,2022.2.5,144.85091218899765,
treatment,0% Never,100% Always,images\FOREHEAD_CFD_AF_231_357_N.png,0,0,0,0,2,20,210,4,,,,,,,,,,,,2023-04-07_19h50.45.988,FaceAttractiveness,2022.2.5,144.85091218899765,
treatment,0% Never,100% Always,images\ NASALTIP_CFD_AF_245_143_N.png,0,0,0,0,2,21,211,63,,,,,,,,,,,,2023-04-07_19h50.45.988,FaceAttractiveness,2022.2.5,144.85091218899765,
treatment,0% Never,100% Always,images\ LCHEEK_CFD_BM_213_134_N.png,0,0,0,0,2,22,212,29,,,,,,,,,,,,2023-04-07_19h50.45.988,FaceAttractiveness,2022.2.5,144.85091218899765,
treatment,0% Never,100% Always,"images\ NASALTIP_136_M_M_N_A.png
",0,0,0,0,2,23,213,60,,,,,,,,,,,,2023-04-07_19h50.45.988,FaceAttractiveness,2022.2.5,144.85091218899765,
treatment,0% Never,100% Always,images\ RCHEEK_CFD_WF_250_167_N.png,0,0,0,0,2,24,214,93,,,,,,,,,,,,2023-04-07_19h50.45.988,FaceAttractiveness,2022.2.5,144.85091218899765,
treatment,0% Never,100% Always,"images\ LIP_CFD_WF_002_004_N.png
",0,0,0,0,2,25,215,53,,,,,,,,,,,,2023-04-07_19h50.45.988,FaceAttractiveness,2022.2.5,144.85091218899765,
treatment,0% Never,100% Always,images\ NASALTIP_CFD_AF_237_223_N.png,0,0,0,0,2,26,216,62,,,,,,,,,,,,2023-04-07_19h50.45.988,FaceAttractiveness,2022.2.5,144.85091218899765,
treatment,0% Never,100% Always,"images\ LIP_CFD_BM_234_172_N.png
",0,0,0,0,2,27,217,49,,,,,,,,,,,,2023-04-07_19h50.45.988,FaceAttractiveness,2022.2.5,144.85091218899765,
treatment,0% Never,100% Always,images\ NASALTIP_CFD_LM_203_026_N.png,0,0,0,0,2,28,218,71,,,,,,,,,,,,2023-04-07_19h50.45.988,FaceAttractiveness,2022.2.5,144.85091218899765,
treatment,0% Never,100% Always,images\FOREHEAD_035_M_F_N_A.png,0,0,0,0,2,29,219,1,,,,,,,,,,,,2023-04-07_19h50.45.988,FaceAttractiveness,2022.2.5,144.85091218899765,
treatment,0% Never,100% Always,images\ NASALTIP_087_M_M_N_A.png,0,0,0,0,2,30,220,59,,,,,,,,,,,,2023-04-07_19h50.45.988,FaceAttractiveness,2022.2.5,144.85091218899765,
treatment,0% Never,100% Always,"images\ NASALTIP_CFD_BM_234_172_N.png
",0,0,0,0,2,31,221,68,,,,,,,,,,,,2023-04-07_19h50.45.988,FaceAttractiveness,2022.2.5,144.85091218899765,
treatment,0% Never,100% Always,images\ LIP_CFD_LM_203_026_N.png,0,0,0,0,2,32,222,52,,,,,,,,,,,,2023-04-07_19h50.45.988,FaceAttractiveness,2022.2.5,144.85091218899765,
treatment,0% Never,100% Always,"images\ RCHEEK_CFD_AM_233_236_N.png
",0,0,0,0,2,33,223,83,,,,,,,,,,,,2023-04-07_19h50.45.988,FaceAttractiveness,2022.2.5,144.85091218899765,
treatment,0% Never,100% Always,images\ RCHEEK_CFD_AF_231_357_N.png,0,0,0,0,2,34,224,80,,,,,,,,,,,,2023-04-07_19h50.45.988,FaceAttractiveness,2022.2.5,144.85091218899765,
treatment,0% Never,100% Always,images\ RCHEEK_035_M_F_N_A.png,0,0,0,0,2,35,225,77,,,,,,,,,,,,2023-04-07_19h50.45.988,FaceAttractiveness,2022.2.5,144.85091218899765,
treatment,0% Never,100% Always,images\ RCHEEK_CFD_WM_212_097_N.png,0,0,0,0,2,36,226,94,,,,,,,,,,,,2023-04-07_19h50.45.988,FaceAttractiveness,2022.2.5,144.85091218899765,
treatment,0% Never,100% Always,images\ LCHEEK_CFD_WF_200_099_N.png,0,0,0,0,2,37,227,35,,,,,,,,,,,,2023-04-07_19h50.45.988,FaceAttractiveness,2022.2.5,144.85091218899765,
treatment,0% Never,100% Always,images\ NASALTIP_CFD_LM_201_057_N.png,0,0,0,0,2,38,228,70,,,,,,,,,,,,2023-04-07_19h50.45.988,FaceAttractiveness,2022.2.5,144.85091218899765,
treatment,0% Never,100% Always,images\FOREHEAD_CFD_AM_233_236_N.png,0,0,0,0,2,39,229,7,,,,,,,,,,,,2023-04-07_19h50.45.988,FaceAttractiveness,2022.2.5,144.85091218899765,
treatment,0% Never,100% Always,images\ NASALTIP_CFD_WM_212_097_N.png,0,0,0,0,2,40,230,75,,,,,,,,,,,,2023-04-07_19h50.45.988,FaceAttractiveness,2022.2.5,144.85091218899765,
treatment,0% Never,100% Always,images\ LIP_CFD_AF_237_223_N.png,0,0,0,0,2,41,231,43,,,,,,,,,,,,2023-04-07_19h50.45.988,FaceAttractiveness,2022.2.5,144.85091218899765,
treatment,0% Never,100% Always,"images\ RCHEEK_CFD_WF_002_004_N.png
",0,0,0,0,2,42,232,91,,,,,,,,,,,,2023-04-07_19h50.45.988,FaceAttractiveness,2022.2.5,144.85091218899765,
treatment,0% Never,100% Always,images\ LCHEEK_CFD_AF_245_143_N.png,0,0,0,0,2,43,233,25,,,,,,,,,,,,2023-04-07_19h50.45.988,FaceAttractiveness,2022.2.5,144.85091218899765,
treatment,0% Never,100% Always,"images\ LCHEEK_136_M_M_N_A.png
",0,0,0,0,2,44,234,22,,,,,,,,,,,,2023-04-07_19h50.45.988,FaceAttractiveness,2022.2.5,144.85091218899765,
treatment,0% Never,100% Always,images\ LIP_CFD_WF_200_099_N.png,0,0,0,0,2,45,235,54,,,,,,,,,,,,2023-04-07_19h50.45.988,FaceAttractiveness,2022.2.5,144.85091218899765,
treatment,0% Never,100% Always,images\FOREHEAD_CFD_BM_213_134_N.png,0,0,0,0,2,46,236,10,,,,,,,,,,,,2023-04-07_19h50.45.988,FaceAttractiveness,2022.2.5,144.85091218899765,
treatment,0% Never,100% Always,"images\ LIP_CFD_AM_233_236_N.png
",0,0,0,0,2,47,237,45,,,,,,,,,,,,2023-04-07_19h50.45.988,FaceAttractiveness,2022.2.5,144.85091218899765,
treatment,0% Never,100% Always,images\ LCHEEK_087_M_M_N_A.png,0,0,0,0,2,48,238,21,,,,,,,,,,,,2023-04-07_19h50.45.988,FaceAttractiveness,2022.2.5,144.85091218899765,
treatment,0% Never,100% Always,images\ LIP_087_M_M_N_A.png,0,0,0,0,2,49,239,40,,,,,,,,,,,,2023-04-07_19h50.45.988,FaceAttractiveness,2022.2.5,144.85091218899765,
treatment,0% Never,100% Always,images\ NASALTIP_CFD_WF_250_167_N.png,0,0,0,0,2,50,240,74,,,,,,,,,,,,2023-04-07_19h50.45.988,FaceAttractiveness,2022.2.5,144.85091218899765,
treatment,0% Never,100% Always,images\ LIP_CFD_WM_212_097_N.png,0,0,0,0,2,51,241,56,,,,,,,,,,,,2023-04-07_19h50.45.988,FaceAttractiveness,2022.2.5,144.85091218899765,
treatment,0% Never,100% Always,images\ LIP_CFD_AF_231_357_N.png,0,0,0,0,2,52,242,42,,,,,,,,,,,,2023-04-07_19h50.45.988,FaceAttractiveness,2022.2.5,144.85091218899765,
treatment,0% Never,100% Always,images\ LCHEEK_CFD_AF_231_357_N.png,0,0,0,0,2,53,243,23,,,,,,,,,,,,2023-04-07_19h50.45.988,FaceAttractiveness,2022.2.5,144.85091218899765,
treatment,0% Never,100% Always,"images\ NASALTIP_CFD_WF_002_004_N.png
",0,0,0,0,2,54,244,72,,,,,,,,,,,,2023-04-07_19h50.45.988,FaceAttractiveness,2022.2.5,144.85091218899765,
treatment,0% Never,100% Always,images\ LCHEEK_CFD_LM_203_026_N.png,0,0,0,0,2,55,245,33,,,,,,,,,,,,2023-04-07_19h50.45.988,FaceAttractiveness,2022.2.5,144.85091218899765,
treatment,0% Never,100% Always,images\FOREHEAD_CFD_WF_002_004_N.png,0,0,0,0,2,56,246,15,,,,,,,,,,,,2023-04-07_19h50.45.988,FaceAttractiveness,2022.2.5,144.85091218899765,
treatment,0% Never,100% Always,images\FOREHEAD_CFD_LM_201_057_N.png,0,0,0,0,2,57,247,13,,,,,,,,,,,,2023-04-07_19h50.45.988,FaceAttractiveness,2022.2.5,144.85091218899765,
treatment,0% Never,100% Always,images\FOREHEAD_CFD_LM_203_026_N.png,0,0,0,0,2,58,248,14,,,,,,,,,,,,2023-04-07_19h50.45.988,FaceAttractiveness,2022.2.5,144.85091218899765,
treatment,0% Never,100% Always,images\ NASALTIP_CFD_WF_200_099_N.png,0,0,0,0,2,59,249,73,,,,,,,,,,,,2023-04-07_19h50.45.988,FaceAttractiveness,2022.2.5,144.85091218899765,
treatment,0% Never,100% Always,"images\ LCHEEK_CFD_BM_234_172_N.png
",0,0,0,0,2,60,250,30,,,,,,,,,,,,2023-04-07_19h50.45.988,FaceAttractiveness,2022.2.5,144.85091218899765,
treatment,0% Never,100% Always,images\ NASALTIP_CFD_BF_224_002_N.png,0,0,0,0,2,61,251,66,,,,,,,,,,,,2023-04-07_19h50.45.988,FaceAttractiveness,2022.2.5,144.85091218899765,
treatment,0% Never,100% Always,images\ LCHEEK_CFD_WF_250_167_N.png,0,0,0,0,2,62,252,36,,,,,,,,,,,,2023-04-07_19h50.45.988,FaceAttractiveness,2022.2.5,144.85091218899765,
treatment,0% Never,100% Always,"images\ LCHEEK_CFD_AM_233_236_N.png
",0,0,0,0,2,63,253,26,,,,,,,,,,,,2023-04-07_19h50.45.988,FaceAttractiveness,2022.2.5,144.85091218899765,
treatment,0% Never,100% Always,images\FOREHEAD_006_M_F_N_A.png,0,0,0,0,2,64,254,0,,,,,,,,,,,,2023-04-07_19h50.45.988,FaceAttractiveness,2022.2.5,144.85091218899765,
treatment,0% Never,100% Always,images\FOREHEAD_CFD_WM_212_097_N.png,0,0,0,0,2,65,255,18,,,,,,,,,,,,2023-04-07_19h50.45.988,FaceAttractiveness,2022.2.5,144.85091218899765,
treatment,0% Never,100% Always,images\ RCHEEK_CFD_LF_224_176_N.png,0,0,0,0,2,66,256,88,,,,,,,,,,,,2023-04-07_19h50.45.988,FaceAttractiveness,2022.2.5,144.85091218899765,
treatment,0% Never,100% Always,images\FOREHEAD_CFD_WF_200_099_N.png,0,0,0,0,2,67,257,16,,,,,,,,,,,,2023-04-07_19h50.45.988,FaceAttractiveness,2022.2.5,144.85091218899765,
treatment,0% Never,100% Always,images\FOREHEAD_CFD_AF_237_223_N.png,0,0,0,0,2,68,258,5,,,,,,,,,,,,2023-04-07_19h50.45.988,FaceAttractiveness,2022.2.5,144.85091218899765,
treatment,0% Never,100% Always,"images\ RCHEEK_136_M_M_N_A.png
",0,0,0,0,2,69,259,79,,,,,,,,,,,,2023-04-07_19h50.45.988,FaceAttractiveness,2022.2.5,144.85091218899765,
treatment,0% Never,100% Always,images\ LIP_CFD_AF_245_143_N.png,0,0,0,0,2,70,260,44,,,,,,,,,,,,2023-04-07_19h50.45.988,FaceAttractiveness,2022.2.5,144.85091218899765,
treatment,0% Never,100% Always,images\ LIP_CFD_LM_201_057_N.png,0,0,0,0,2,71,261,51,,,,,,,,,,,,2023-04-07_19h50.45.988,FaceAttractiveness,2022.2.5,144.85091218899765,
treatment,0% Never,100% Always,images\ LIP_CFD_WF_250_167_N.png,0,0,0,0,2,72,262,55,,,,,,,,,,,,2023-04-07_19h50.45.988,FaceAttractiveness,2022.2.5,144.85091218899765,
treatment,0% Never,100% Always,images\ LCHEEK_CFD_BF_214_308_N.png,0,0,0,0,2,73,263,27,,,,,,,,,,,,2023-04-07_19h50.45.988,FaceAttractiveness,2022.2.5,144.85091218899765,
treatment,0% Never,100% Always,images\ RCHEEK_CFD_AF_245_143_N.png,0,0,0,0,2,74,264,82,,,,,,,,,,,,2023-04-07_19h50.45.988,FaceAttractiveness,2022.2.5,144.85091218899765,
treatment,0% Never,100% Always,images\ LIP_CFD_BF_214_308_N.png,0,0,0,0,2,75,265,46,,,,,,,,,,,,2023-04-07_19h50.45.988,FaceAttractiveness,2022.2.5,144.85091218899765,
treatment,0% Never,100% Always,"images\ LIP_136_M_M_N_A.png
",0,0,0,0,2,76,266,41,,,,,,,,,,,,2023-04-07_19h50.45.988,FaceAttractiveness,2022.2.5,144.85091218899765,
treatment,0% Never,100% Always,images\FOREHEAD_CFD_BF_224_002_N.png,0,0,0,0,2,77,267,9,,,,,,,,,,,,2023-04-07_19h50.45.988,FaceAttractiveness,2022.2.5,144.85091218899765,
treatment,0% Never,100% Always,images\ LCHEEK_CFD_LF_224_176_N.png,0,0,0,0,2,78,268,31,,,,,,,,,,,,2023-04-07_19h50.45.988,FaceAttractiveness,2022.2.5,144.85091218899765,
treatment,0% Never,100% Always,images\ LIP_CFD_BM_213_134_N.png,0,0,0,0,2,79,269,48,,,,,,,,,,,,2023-04-07_19h50.45.988,FaceAttractiveness,2022.2.5,144.85091218899765,
treatment,0% Never,100% Always,images\ LCHEEK_CFD_WM_212_097_N.png,0,0,0,0,2,80,270,37,,,,,,,,,,,,2023-04-07_19h50.45.988,FaceAttractiveness,2022.2.5,144.85091218899765,
treatment,0% Never,100% Always,images\ NASALTIP_CFD_LF_224_176_N.png,0,0,0,0,2,81,271,69,,,,,,,,,,,,2023-04-07_19h50.45.988,FaceAttractiveness,2022.2.5,144.85091218899765,
treatment,0% Never,100% Always,images\FOREHEAD_CFD_WF_250_167_N.png,0,0,0,0,2,82,272,17,,,,,,,,,,,,2023-04-07_19h50.45.988,FaceAttractiveness,2022.2.5,144.85091218899765,
treatment,0% Never,100% Always,"images\ LCHEEK_CFD_WF_002_004_N.png
",0,0,0,0,2,83,273,34,,,,,,,,,,,,2023-04-07_19h50.45.988,FaceAttractiveness,2022.2.5,144.85091218899765,
treatment,0% Never,100% Always,images\ NASALTIP_CFD_BF_214_308_N.png,0,0,0,0,2,84,274,65,,,,,,,,,,,,2023-04-07_19h50.45.988,FaceAttractiveness,2022.2.5,144.85091218899765,
treatment,0% Never,100% Always,images\ NASALTIP_035_M_F_N_A.png,0,0,0,0,2,85,275,58,,,,,,,,,,,,2023-04-07_19h50.45.988,FaceAttractiveness,2022.2.5,144.85091218899765,
treatment,0% Never,100% Always,images\ LIP_035_M_F_N_A.png,0,0,0,0,2,86,276,39,,,,,,,,,,,,2023-04-07_19h50.45.988,FaceAttractiveness,2022.2.5,144.85091218899765,
treatment,0% Never,100% Always,"images\ RCHEEK_CFD_BM_234_172_N.png
",0,0,0,0,2,87,277,87,,,,,,,,,,,,2023-04-07_19h50.45.988,FaceAttractiveness,2022.2.5,144.85091218899765,
treatment,0% Never,100% Always,images\ RCHEEK_CFD_BF_214_308_N.png,0,0,0,0,2,88,278,84,,,,,,,,,,,,2023-04-07_19h50.45.988,FaceAttractiveness,2022.2.5,144.85091218899765,
treatment,0% Never,100% Always,images\ RCHEEK_CFD_LM_201_057_N.png,0,0,0,0,2,89,279,89,,,,,,,,,,,,2023-04-07_19h50.45.988,FaceAttractiveness,2022.2.5,144.85091218899765,
treatment,0% Never,100% Always,images\ LCHEEK_CFD_AF_237_223_N.png,0,0,0,0,2,90,280,24,,,,,,,,,,,,2023-04-07_19h50.45.988,FaceAttractiveness,2022.2.5,144.85091218899765,
treatment,0% Never,100% Always,images\ LCHEEK_CFD_BF_224_002_N.png,0,0,0,0,2,91,281,28,,,,,,,,,,,,2023-04-07_19h50.45.988,FaceAttractiveness,2022.2.5,144.85091218899765,
treatment,0% Never,100% Always,images\ RCHEEK_087_M_M_N_A.png,0,0,0,0,2,92,282,78,,,,,,,,,,,,2023-04-07_19h50.45.988,FaceAttractiveness,2022.2.5,144.85091218899765,
treatment,0% Never,100% Always,images\ RCHEEK_CFD_WF_200_099_N.png,0,0,0,0,2,93,283,92,,,,,,,,,,,,2023-04-07_19h50.45.988,FaceAttractiveness,2022.2.5,144.85091218899765,
treatment,0% Never,100% Always,images\ LIP_006_M_F_N_A.png,0,0,0,0,2,94,284,38,,,,,,,,,,,,2023-04-07_19h50.45.988,FaceAttractiveness,2022.2.5,144.85091218899765,
treatment,0% Never,100% Always,images\ LIP_CFD_WM_212_097_N.png,0,0,0,0,3,0,285,56,,,,,,,,,,,,2023-04-07_19h50.45.988,FaceAttractiveness,2022.2.5,144.85091218899765,
treatment,0% Never,100% Always,images\ LIP_035_M_F_N_A.png,0,0,0,0,3,1,286,39,,,,,,,,,,,,2023-04-07_19h50.45.988,FaceAttractiveness,2022.2.5,144.85091218899765,
treatment,0% Never,100% Always,images\ NASALTIP_CFD_WF_200_099_N.png,0,0,0,0,3,2,287,73,,,,,,,,,,,,2023-04-07_19h50.45.988,FaceAttractiveness,2022.2.5,144.85091218899765,
treatment,0% Never,100% Always,"images\ LIP_CFD_AM_233_236_N.png
",0,0,0,0,3,3,288,45,,,,,,,,,,,,2023-04-07_19h50.45.988,FaceAttractiveness,2022.2.5,144.85091218899765,
treatment,0% Never,100% Always,images\ LCHEEK_CFD_AF_231_357_N.png,0,0,0,0,3,4,289,23,,,,,,,,,,,,2023-04-07_19h50.45.988,FaceAttractiveness,2022.2.5,144.85091218899765,
treatment,0% Never,100% Always,images\ RCHEEK_087_M_M_N_A.png,0,0,0,0,3,5,290,78,,,,,,,,,,,,2023-04-07_19h50.45.988,FaceAttractiveness,2022.2.5,144.85091218899765,
treatment,0% Never,100% Always,images\ LCHEEK_CFD_BF_224_002_N.png,0,0,0,0,3,6,291,28,,,,,,,,,,,,2023-04-07_19h50.45.988,FaceAttractiveness,2022.2.5,144.85091218899765,
treatment,0% Never,100% Always,images\ NASALTIP_087_M_M_N_A.png,0,0,0,0,3,7,292,59,,,,,,,,,,,,2023-04-07_19h50.45.988,FaceAttractiveness,2022.2.5,144.85091218899765,
treatment,0% Never,100% Always,images\FOREHEAD_CFD_AM_233_236_N.png,0,0,0,0,3,8,293,7,,,,,,,,,,,,2023-04-07_19h50.45.988,FaceAttractiveness,2022.2.5,144.85091218899765,
treatment,0% Never,100% Always,images\ NASALTIP_CFD_LF_224_176_N.png,0,0,0,0,3,9,294,69,,,,,,,,,,,,2023-04-07_19h50.45.988,FaceAttractiveness,2022.2.5,144.85091218899765,
treatment,0% Never,100% Always,images\FOREHEAD_087_M_M_N_A.png,0,0,0,0,3,10,295,2,,,,,,,,,,,,2023-04-07_19h50.45.988,FaceAttractiveness,2022.2.5,144.85091218899765,
treatment,0% Never,100% Always,images\FOREHEAD_CFD_WF_002_004_N.png,0,0,0,0,3,11,296,15,,,,,,,,,,,,2023-04-07_19h50.45.988,FaceAttractiveness,2022.2.5,144.85091218899765,
treatment,0% Never,100% Always,images\FOREHEAD_CFD_LM_201_057_N.png,0,0,0,0,3,12,297,13,,,,,,,,,,,,2023-04-07_19h50.45.988,FaceAttractiveness,2022.2.5,144.85091218899765,
treatment,0% Never,100% Always,"images\ LCHEEK_CFD_WF_002_004_N.png
",0,0,0,0,3,13,298,34,,,,,,,,,,,,2023-04-07_19h50.45.988,FaceAttractiveness,2022.2.5,144.85091218899765,
treatment,0% Never,100% Always,images\ LCHEEK_CFD_BF_214_308_N.png,0,0,0,0,3,14,299,27,,,,,,,,,,,,2023-04-07_19h50.45.988,FaceAttractiveness,2022.2.5,144.85091218899765,
treatment,0% Never,100% Always,images\ RCHEEK_035_M_F_N_A.png,0,0,0,0,3,15,300,77,,,,,,,,,,,,2023-04-07_19h50.45.988,FaceAttractiveness,2022.2.5,144.85091218899765,
treatment,0% Never,100% Always,images\ NASALTIP_CFD_BF_214_308_N.png,0,0,0,0,3,16,301,65,,,,,,,,,,,,2023-04-07_19h50.45.988,FaceAttractiveness,2022.2.5,144.85091218899765,
treatment,0% Never,100% Always,"images\ NASALTIP_136_M_M_N_A.png
",0,0,0,0,3,17,302,60,,,,,,,,,,,,2023-04-07_19h50.45.988,FaceAttractiveness,2022.2.5,144.85091218899765,
treatment,0% Never,100% Always,images\ LCHEEK_CFD_AF_245_143_N.png,0,0,0,0,3,18,303,25,,,,,,,,,,,,2023-04-07_19h50.45.988,FaceAttractiveness,2022.2.5,144.85091218899765,
treatment,0% Never,100% Always,images\FOREHEAD_CFD_WF_200_099_N.png,0,0,0,0,3,19,304,16,,,,,,,,,,,,2023-04-07_19h50.45.988,FaceAttractiveness,2022.2.5,144.85091218899765,
treatment,0% Never,100% Always,"images\ LCHEEK_CFD_AM_233_236_N.png
",0,0,0,0,3,20,305,26,,,,,,,,,,,,2023-04-07_19h50.45.988,FaceAttractiveness,2022.2.5,144.85091218899765,
treatment,0% Never,100% Always,images\ LIP_CFD_LM_201_057_N.png,0,0,0,0,3,21,306,51,,,,,,,,,,,,2023-04-07_19h50.45.988,FaceAttractiveness,2022.2.5,144.85091218899765,
treatment,0% Never,100% Always,images\ NASALTIP_CFD_BM_213_134_N.png,0,0,0,0,3,22,307,67,,,,,,,,,,,,2023-04-07_19h50.45.988,FaceAttractiveness,2022.2.5,144.85091218899765,
treatment,0% Never,100% Always,"images\ LCHEEK_CFD_BM_234_172_N.png
",0,0,0,0,3,23,308,30,,,,,,,,,,,,2023-04-07_19h50.45.988,FaceAttractiveness,2022.2.5,144.85091218899765,
treatment,0% Never,100% Always,images\ LCHEEK_CFD_BM_213_134_N.png,0,0,0,0,3,24,309,29,,,,,,,,,,,,2023-04-07_19h50.45.988,FaceAttractiveness,2022.2.5,144.85091218899765,
treatment,0% Never,100% Always,images\ NASALTIP_CFD_AF_245_143_N.png,0,0,0,0,3,25,310,63,,,,,,,,,,,,2023-04-07_19h50.45.988,FaceAttractiveness,2022.2.5,144.85091218899765,
treatment,0% Never,100% Always,images\ RCHEEK_CFD_AF_237_223_N.png,0,0,0,0,3,26,311,81,,,,,,,,,,,,2023-04-07_19h50.45.988,FaceAttractiveness,2022.2.5,144.85091218899765,
treatment,0% Never,100% Always,images\ NASALTIP_CFD_LM_203_026_N.png,0,0,0,0,3,27,312,71,,,,,,,,,,,,2023-04-07_19h50.45.988,FaceAttractiveness,2022.2.5,144.85091218899765,
treatment,0% Never,100% Always,images\ NASALTIP_CFD_AF_237_223_N.png,0,0,0,0,3,28,313,62,,,,,,,,,,,,2023-04-07_19h50.45.988,FaceAttractiveness,2022.2.5,144.85091218899765,
treatment,0% Never,100% Always,images\ LCHEEK_CFD_LM_203_026_N.png,0,0,0,0,3,29,314,33,,,,,,,,,,,,2023-04-07_19h50.45.988,FaceAttractiveness,2022.2.5,144.85091218899765,
treatment,0% Never,100% Always,images\ RCHEEK_CFD_LM_201_057_N.png,0,0,0,0,3,30,315,89,,,,,,,,,,,,2023-04-07_19h50.45.988,FaceAttractiveness,2022.2.5,144.85091218899765,
treatment,0% Never,100% Always,images\ LIP_CFD_AF_245_143_N.png,0,0,0,0,3,31,316,44,,,,,,,,,,,,2023-04-07_19h50.45.988,FaceAttractiveness,2022.2.5,144.85091218899765,
treatment,0% Never,100% Always,images\ LIP_CFD_BF_214_308_N.png,0,0,0,0,3,32,317,46,,,,,,,,,,,,2023-04-07_19h50.45.988,FaceAttractiveness,2022.2.5,144.85091218899765,
treatment,0% Never,100% Always,images\ NASALTIP_CFD_LM_201_057_N.png,0,0,0,0,3,33,318,70,,,,,,,,,,,,2023-04-07_19h50.45.988,FaceAttractiveness,2022.2.5,144.85091218899765,
treatment,0% Never,100% Always,images\ NASALTIP_035_M_F_N_A.png,0,0,0,0,3,34,319,58,,,,,,,,,,,,2023-04-07_19h50.45.988,FaceAttractiveness,2022.2.5,144.85091218899765,
treatment,0% Never,100% Always,images\ LIP_CFD_BF_224_002_N.png,0,0,0,0,3,35,320,47,,,,,,,,,,,,2023-04-07_19h50.45.988,FaceAttractiveness,2022.2.5,144.85091218899765,
treatment,0% Never,100% Always,images\FOREHEAD_035_M_F_N_A.png,0,0,0,0,3,36,321,1,,,,,,,,,,,,2023-04-07_19h50.45.988,FaceAttractiveness,2022.2.5,144.85091218899765,
treatment,0% Never,100% Always,images\ LCHEEK_CFD_LF_224_176_N.png,0,0,0,0,3,37,322,31,,,,,,,,,,,,2023-04-07_19h50.45.988,FaceAttractiveness,2022.2.5,144.85091218899765,
treatment,0% Never,100% Always,images\ LIP_CFD_WF_200_099_N.png,0,0,0,0,3,38,323,54,,,,,,,,,,,,2023-04-07_19h50.45.988,FaceAttractiveness,2022.2.5,144.85091218899765,
treatment,0% Never,100% Always,"images\ LIP_CFD_BM_234_172_N.png
",0,0,0,0,3,39,324,49,,,,,,,,,,,,2023-04-07_19h50.45.988,FaceAttractiveness,2022.2.5,144.85091218899765,
treatment,0% Never,100% Always,images\ LCHEEK_CFD_WM_212_097_N.png,0,0,0,0,3,40,325,37,,,,,,,,,,,,2023-04-07_19h50.45.988,FaceAttractiveness,2022.2.5,144.85091218899765,
treatment,0% Never,100% Always,images\ RCHEEK_CFD_BM_213_134_N.png,0,0,0,0,3,41,326,86,,,,,,,,,,,,2023-04-07_19h50.45.988,FaceAttractiveness,2022.2.5,144.85091218899765,
treatment,0% Never,100% Always,"images\ NASALTIP_CFD_AM_233_236_N.png
",0,0,0,0,3,42,327,64,,,,,,,,,,,,2023-04-07_19h50.45.988,FaceAttractiveness,2022.2.5,144.85091218899765,
treatment,0% Never,100% Always,images\FOREHEAD_CFD_LM_203_026_N.png,0,0,0,0,3,43,328,14,,,,,,,,,,,,2023-04-07_19h50.45.988,FaceAttractiveness,2022.2.5,144.85091218899765,
treatment,0% Never,100% Always,images\FOREHEAD_CFD_AF_231_357_N.png,0,0,0,0,3,44,329,4,,,,,,,,,,,,2023-04-07_19h50.45.988,FaceAttractiveness,2022.2.5,144.85091218899765,
treatment,0% Never,100% Always,images\ LIP_CFD_LF_224_176_N.png,0,0,0,0,3,45,330,50,,,,,,,,,,,,2023-04-07_19h50.45.988,FaceAttractiveness,2022.2.5,144.85091218899765,
treatment,0% Never,100% Always,"images\ LCHEEK_136_M_M_N_A.png
",0,0,0,0,3,46,331,22,,,,,,,,,,,,2023-04-07_19h50.45.988,FaceAttractiveness,2022.2.5,144.85091218899765,
treatment,0% Never,100% Always,images\ LIP_087_M_M_N_A.png,0,0,0,0,3,47,332,40,,,,,,,,,,,,2023-04-07_19h50.45.988,FaceAttractiveness,2022.2.5,144.85091218899765,
treatment,0% Never,100% Always,images\ LCHEEK_CFD_WF_200_099_N.png,0,0,0,0,3,48,333,35,,,,,,,,,,,,2023-04-07_19h50.45.988,FaceAttractiveness,2022.2.5,144.85091218899765,
treatment,0% Never,100% Always,images\ LIP_CFD_BM_213_134_N.png,0,0,0,0,3,49,334,48,,,,,,,,,,,,2023-04-07_19h50.45.988,FaceAttractiveness,2022.2.5,144.85091218899765,
treatment,0% Never,100% Always,images\ LCHEEK_006_M_F_N_A.png,0,0,0,0,3,50,335,19,,,,,,,,,,,,2023-04-07_19h50.45.988,FaceAttractiveness,2022.2.5,144.85091218899765,
treatment,0% Never,100% Always,images\FOREHEAD_136_M_M_N_A.png,0,0,0,0,3,51,336,3,,,,,,,,,,,,2023-04-07_19h50.45.988,FaceAttractiveness,2022.2.5,144.85091218899765,
treatment,0% Never,100% Always,"images\ RCHEEK_CFD_WF_002_004_N.png
",0,0,0,0,3,52,337,91,,,,,,,,,,,,2023-04-07_19h50.45.988,FaceAttractiveness,2022.2.5,144.85091218899765,
treatment,0% Never,100% Always,"images\ LIP_CFD_WF_002_004_N.png
",0,0,0,0,3,53,338,53,,,,,,,,,,,,2023-04-07_19h50.45.988,FaceAttractiveness,2022.2.5,144.85091218899765,
treatment,0% Never,100% Always,images\FOREHEAD_CFD_BM_213_134_N.png,0,0,0,0,3,54,339,10,,,,,,,,,,,,2023-04-07_19h50.45.988,FaceAttractiveness,2022.2.5,144.85091218899765,
treatment,0% Never,100% Always,images\ RCHEEK_CFD_WF_250_167_N.png,0,0,0,0,3,55,340,93,,,,,,,,,,,,2023-04-07_19h50.45.988,FaceAttractiveness,2022.2.5,144.85091218899765,
treatment,0% Never,100% Always,images\ RCHEEK_CFD_LF_224_176_N.png,0,0,0,0,3,56,341,88,,,,,,,,,,,,2023-04-07_19h50.45.988,FaceAttractiveness,2022.2.5,144.85091218899765,
treatment,0% Never,100% Always,"images\ RCHEEK_136_M_M_N_A.png
",0,0,0,0,3,57,342,79,,,,,,,,,,,,2023-04-07_19h50.45.988,FaceAttractiveness,2022.2.5,144.85091218899765,
treatment,0% Never,100% Always,images\ RCHEEK_CFD_AF_245_143_N.png,0,0,0,0,3,58,343,82,,,,,,,,,,,,2023-04-07_19h50.45.988,FaceAttractiveness,2022.2.5,144.85091218899765,
treatment,0% Never,100% Always,images\ LIP_CFD_WF_250_167_N.png,0,0,0,0,3,59,344,55,,,,,,,,,,,,2023-04-07_19h50.45.988,FaceAttractiveness,2022.2.5,144.85091218899765,
treatment,0% Never,100% Always,images\FOREHEAD_CFD_AF_245_143_N.png,0,0,0,0,3,60,345,6,,,,,,,,,,,,2023-04-07_19h50.45.988,FaceAttractiveness,2022.2.5,144.85091218899765,
treatment,0% Never,100% Always,images\ LCHEEK_CFD_LM_201_057_N.png,0,0,0,0,3,61,346,32,,,,,,,,,,,,2023-04-07_19h50.45.988,FaceAttractiveness,2022.2.5,144.85091218899765,
treatment,0% Never,100% Always,images\ NASALTIP_CFD_AF_231_357_N.png,0,0,0,0,3,62,347,61,,,,,,,,,,,,2023-04-07_19h50.45.988,FaceAttractiveness,2022.2.5,144.85091218899765,
treatment,0% Never,100% Always,images\FOREHEAD_CFD_LF_224_176_N.png,0,0,0,0,3,63,348,12,,,,,,,,,,,,2023-04-07_19h50.45.988,FaceAttractiveness,2022.2.5,144.85091218899765,
treatment,0% Never,100% Always,images\FOREHEAD_006_M_F_N_A.png,0,0,0,0,3,64,349,0,,,,,,,,,,,,2023-04-07_19h50.45.988,FaceAttractiveness,2022.2.5,144.85091218899765,
treatment,0% Never,100% Always,images\ NASALTIP_006_M_F_N_A.png,0,0,0,0,3,65,350,57,,,,,,,,,,,,2023-04-07_19h50.45.988,FaceAttractiveness,2022.2.5,144.85091218899765,
treatment,0% Never,100% Always,images\FOREHEAD_CFD_AF_237_223_N.png,0,0,0,0,3,66,351,5,,,,,,,,,,,,2023-04-07_19h50.45.988,FaceAttractiveness,2022.2.5,144.85091218899765,
treatment,0% Never,100% Always,images\ RCHEEK_CFD_WF_200_099_N.png,0,0,0,0,3,67,352,92,,,,,,,,,,,,2023-04-07_19h50.45.988,FaceAttractiveness,2022.2.5,144.85091218899765,
treatment,0% Never,100% Always,images\ RCHEEK_CFD_BF_214_308_N.png,0,0,0,0,3,68,353,84,,,,,,,,,,,,2023-04-07_19h50.45.988,FaceAttractiveness,2022.2.5,144.85091218899765,
treatment,0% Never,100% Always,images\FOREHEAD_CFD_BF_224_002_N.png,0,0,0,0,3,69,354,9,,,,,,,,,,,,2023-04-07_19h50.45.988,FaceAttractiveness,2022.2.5,144.85091218899765,
treatment,0% Never,100% Always,images\ NASALTIP_CFD_WF_250_167_N.png,0,0,0,0,3,70,355,74,,,,,,,,,,,,2023-04-07_19h50.45.988,FaceAttractiveness,2022.2.5,144.85091218899765,
treatment,0% Never,100% Always,images\FOREHEAD_CFD_WF_250_167_N.png,0,0,0,0,3,71,356,17,,,,,,,,,,,,2023-04-07_19h50.45.988,FaceAttractiveness,2022.2.5,144.85091218899765,
treatment,0% Never,100% Always,images\ NASALTIP_CFD_BF_224_002_N.png,0,0,0,0,3,72,357,66,,,,,,,,,,,,2023-04-07_19h50.45.988,FaceAttractiveness,2022.2.5,144.85091218899765,
treatment,0% Never,100% Always,images\ LCHEEK_CFD_WF_250_167_N.png,0,0,0,0,3,73,358,36,,,,,,,,,,,,2023-04-07_19h50.45.988,FaceAttractiveness,2022.2.5,144.85091218899765,
treatment,0% Never,100% Always,images\FOREHEAD_CFD_WM_212_097_N.png,0,0,0,0,3,74,359,18,,,,,,,,,,,,2023-04-07_19h50.45.988,FaceAttractiveness,2022.2.5,144.85091218899765,
treatment,0% Never,100% Always,images\ LIP_CFD_LM_203_026_N.png,0,0,0,0,3,75,360,52,,,,,,,,,,,,2023-04-07_19h50.45.988,FaceAttractiveness,2022.2.5,144.85091218899765,
treatment,0% Never,100% Always,images\ LCHEEK_087_M_M_N_A.png,0,0,0,0,3,76,361,21,,,,,,,,,,,,2023-04-07_19h50.45.988,FaceAttractiveness,2022.2.5,144.85091218899765,
treatment,0% Never,100% Always,images\ LIP_CFD_AF_231_357_N.png,0,0,0,0,3,77,362,42,,,,,,,,,,,,2023-04-07_19h50.45.988,FaceAttractiveness,2022.2.5,144.85091218899765,
treatment,0% Never,100% Always,images\ LIP_006_M_F_N_A.png,0,0,0,0,3,78,363,38,,,,,,,,,,,,2023-04-07_19h50.45.988,FaceAttractiveness,2022.2.5,144.85091218899765,
treatment,0% Never,100% Always,images\ RCHEEK_CFD_WM_212_097_N.png,0,0,0,0,3,79,364,94,,,,,,,,,,,,2023-04-07_19h50.45.988,FaceAttractiveness,2022.2.5,144.85091218899765,
treatment,0% Never,100% Always,images\ RCHEEK_CFD_AF_231_357_N.png,0,0,0,0,3,80,365,80,,,,,,,,,,,,2023-04-07_19h50.45.988,FaceAttractiveness,2022.2.5,144.85091218899765,
treatment,0% Never,100% Always,images\FOREHEAD_CFD_BM_234_172_N.png,0,0,0,0,3,81,366,11,,,,,,,,,,,,2023-04-07_19h50.45.988,FaceAttractiveness,2022.2.5,144.85091218899765,
treatment,0% Never,100% Always,"images\ RCHEEK_CFD_AM_233_236_N.png
",0,0,0,0,3,82,367,83,,,,,,,,,,,,2023-04-07_19h50.45.988,FaceAttractiveness,2022.2.5,144.85091218899765,
treatment,0% Never,100% Always,images\ LCHEEK_035_M_F_N_A.png,0,0,0,0,3,83,368,20,,,,,,,,,,,,2023-04-07_19h50.45.988,FaceAttractiveness,2022.2.5,144.85091218899765,
treatment,0% Never,100% Always,images\ RCHEEK_006_M_F_N_A.png,0,0,0,0,3,84,369,76,,,,,,,,,,,,2023-04-07_19h50.45.988,FaceAttractiveness,2022.2.5,144.85091218899765,
treatment,0% Never,100% Always,images\FOREHEAD_CFD_BF_214_308_N.png,0,0,0,0,3,85,370,8,,,,,,,,,,,,2023-04-07_19h50.45.988,FaceAttractiveness,2022.2.5,144.85091218899765,
treatment,0% Never,100% Always,"images\ NASALTIP_CFD_BM_234_172_N.png
",0,0,0,0,3,86,371,68,,,,,,,,,,,,2023-04-07_19h50.45.988,FaceAttractiveness,2022.2.5,144.85091218899765,
treatment,0% Never,100% Always,"images\ RCHEEK_CFD_BM_234_172_N.png
",0,0,0,0,3,87,372,87,,,,,,,,,,,,2023-04-07_19h50.45.988,FaceAttractiveness,2022.2.5,144.85091218899765,
treatment,0% Never,100% Always,images\ RCHEEK_CFD_BF_224_002_N.png,0,0,0,0,3,88,373,85,,,,,,,,,,,,2023-04-07_19h50.45.988,FaceAttractiveness,2022.2.5,144.85091218899765,
treatment,0% Never,100% Always,"images\ NASALTIP_CFD_WF_002_004_N.png
",0,0,0,0,3,89,374,72,,,,,,,,,,,,2023-04-07_19h50.45.988,FaceAttractiveness,2022.2.5,144.85091218899765,
treatment,0% Never,100% Always,images\ NASALTIP_CFD_WM_212_097_N.png,0,0,0,0,3,90,375,75,,,,,,,,,,,,2023-04-07_19h50.45.988,FaceAttractiveness,2022.2.5,144.85091218899765,
treatment,0% Never,100% Always,images\ RCHEEK_CFD_LM_203_026_N.png,0,0,0,0,3,91,376,90,,,,,,,,,,,,2023-04-07_19h50.45.988,FaceAttractiveness,2022.2.5,144.85091218899765,
treatment,0% Never,100% Always,images\ LCHEEK_CFD_AF_237_223_N.png,0,0,0,0,3,92,377,24,,,,,,,,,,,,2023-04-07_19h50.45.988,FaceAttractiveness,2022.2.5,144.85091218899765,
treatment,0% Never,100% Always,"images\ LIP_136_M_M_N_A.png
",0,0,0,0,3,93,378,41,,,,,,,,,,,,2023-04-07_19h50.45.988,FaceAttractiveness,2022.2.5,144.85091218899765,
treatment,0% Never,100% Always,images\ LIP_CFD_AF_237_223_N.png,0,0,0,0,3,94,379,43,,,,,,,,,,,,2023-04-07_19h50.45.988,FaceAttractiveness,2022.2.5,144.85091218899765,
treatment,0% Never,100% Always,images\ LCHEEK_006_M_F_N_A.png,0,0,0,0,4,0,380,19,,,,,,,,,,,,2023-04-07_19h50.45.988,FaceAttractiveness,2022.2.5,144.85091218899765,
treatment,0% Never,100% Always,images\ RCHEEK_CFD_BM_213_134_N.png,0,0,0,0,4,1,381,86,,,,,,,,,,,,2023-04-07_19h50.45.988,FaceAttractiveness,2022.2.5,144.85091218899765,
treatment,0% Never,100% Always,images\ RCHEEK_035_M_F_N_A.png,0,0,0,0,4,2,382,77,,,,,,,,,,,,2023-04-07_19h50.45.988,FaceAttractiveness,2022.2.5,144.85091218899765,
treatment,0% Never,100% Always,"images\ RCHEEK_136_M_M_N_A.png
",0,0,0,0,4,3,383,79,,,,,,,,,,,,2023-04-07_19h50.45.988,FaceAttractiveness,2022.2.5,144.85091218899765,
treatment,0% Never,100% Always,images\ LCHEEK_CFD_LM_203_026_N.png,0,0,0,0,4,4,384,33,,,,,,,,,,,,2023-04-07_19h50.45.988,FaceAttractiveness,2022.2.5,144.85091218899765,
treatment,0% Never,100% Always,"images\ RCHEEK_CFD_AM_233_236_N.png
",0,0,0,0,4,5,385,83,,,,,,,,,,,,2023-04-07_19h50.45.988,FaceAttractiveness,2022.2.5,144.85091218899765,
treatment,0% Never,100% Always,images\ RCHEEK_CFD_LM_201_057_N.png,0,0,0,0,4,6,386,89,,,,,,,,,,,,2023-04-07_19h50.45.988,FaceAttractiveness,2022.2.5,144.85091218899765,
treatment,0% Never,100% Always,"images\ RCHEEK_CFD_WF_002_004_N.png
",0,0,0,0,4,7,387,91,,,,,,,,,,,,2023-04-07_19h50.45.988,FaceAttractiveness,2022.2.5,144.85091218899765,
treatment,0% Never,100% Always,images\ LCHEEK_CFD_BM_213_134_N.png,0,0,0,0,4,8,388,29,,,,,,,,,,,,2023-04-07_19h50.45.988,FaceAttractiveness,2022.2.5,144.85091218899765,
treatment,0% Never,100% Always,images\FOREHEAD_CFD_WF_002_004_N.png,0,0,0,0,4,9,389,15,,,,,,,,,,,,2023-04-07_19h50.45.988,FaceAttractiveness,2022.2.5,144.85091218899765,
treatment,0% Never,100% Always,"images\ LCHEEK_CFD_BM_234_172_N.png
",0,0,0,0,4,10,390,30,,,,,,,,,,,,2023-04-07_19h50.45.988,FaceAttractiveness,2022.2.5,144.85091218899765,
treatment,0% Never,100% Always,images\ RCHEEK_CFD_WF_250_167_N.png,0,0,0,0,4,11,391,93,,,,,,,,,,,,2023-04-07_19h50.45.988,FaceAttractiveness,2022.2.5,144.85091218899765,
treatment,0% Never,100% Always,images\ LCHEEK_CFD_AF_245_143_N.png,0,0,0,0,4,12,392,25,,,,,,,,,,,,2023-04-07_19h50.45.988,FaceAttractiveness,2022.2.5,144.85091218899765,
treatment,0% Never,100% Always,images\ LCHEEK_087_M_M_N_A.png,0,0,0,0,4,13,393,21,,,,,,,,,,,,2023-04-07_19h50.45.988,FaceAttractiveness,2022.2.5,144.85091218899765,
treatment,0% Never,100% Always,images\ RCHEEK_CFD_LF_224_176_N.png,0,0,0,0,4,14,394,88,,,,,,,,,,,,2023-04-07_19h50.45.988,FaceAttractiveness,2022.2.5,144.85091218899765,
treatment,0% Never,100% Always,images\ NASALTIP_035_M_F_N_A.png,0,0,0,0,4,15,395,58,,,,,,,,,,,,2023-04-07_19h50.45.988,FaceAttractiveness,2022.2.5,144.85091218899765,
treatment,0% Never,100% Always,images\FOREHEAD_035_M_F_N_A.png,0,0,0,0,4,16,396,1,,,,,,,,,,,,2023-04-07_19h50.45.988,FaceAttractiveness,2022.2.5,144.85091218899765,
treatment,0% Never,100% Always,images\ NASALTIP_CFD_LM_203_026_N.png,0,0,0,0,4,17,397,71,,,,,,,,,,,,2023-04-07_19h50.45.988,FaceAttractiveness,2022.2.5,144.85091218899765,
treatment,0% Never,100% Always,images\FOREHEAD_CFD_BM_213_134_N.png,0,0,0,0,4,18,398,10,,,,,,,,,,,,2023-04-07_19h50.45.988,FaceAttractiveness,2022.2.5,144.85091218899765,
treatment,0% Never,100% Always,images\ NASALTIP_CFD_LM_201_057_N.png,0,0,0,0,4,19,399,70,,,,,,,,,,,,2023-04-07_19h50.45.988,FaceAttractiveness,2022.2.5,144.85091218899765,
treatment,0% Never,100% Always,images\ RCHEEK_006_M_F_N_A.png,0,0,0,0,4,20,400,76,,,,,,,,,,,,2023-04-07_19h50.45.988,FaceAttractiveness,2022.2.5,144.85091218899765,
treatment,0% Never,100% Always,images\ RCHEEK_CFD_WM_212_097_N.png,0,0,0,0,4,21,401,94,,,,,,,,,,,,2023-04-07_19h50.45.988,FaceAttractiveness,2022.2.5,144.85091218899765,
treatment,0% Never,100% Always,images\ NASALTIP_CFD_AF_237_223_N.png,0,0,0,0,4,22,402,62,,,,,,,,,,,,2023-04-07_19h50.45.988,FaceAttractiveness,2022.2.5,144.85091218899765,
treatment,0% Never,100% Always,images\ NASALTIP_006_M_F_N_A.png,0,0,0,0,4,23,403,57,,,,,,,,,,,,2023-04-07_19h50.45.988,FaceAttractiveness,2022.2.5,144.85091218899765,
treatment,0% Never,100% Always,images\ NASALTIP_CFD_BF_224_002_N.png,0,0,0,0,4,24,404,66,,,,,,,,,,,,2023-04-07_19h50.45.988,FaceAttractiveness,2022.2.5,144.85091218899765,
treatment,0% Never,100% Always,images\ LIP_CFD_LM_201_057_N.png,0,0,0,0,4,25,405,51,,,,,,,,,,,,2023-04-07_19h50.45.988,FaceAttractiveness,2022.2.5,144.85091218899765,
treatment,0% Never,100% Always,images\FOREHEAD_CFD_AF_245_143_N.png,0,0,0,0,4,26,406,6,,,,,,,,,,,,2023-04-07_19h50.45.988,FaceAttractiveness,2022.2.5,144.85091218899765,
treatment,0% Never,100% Always,images\ NASALTIP_CFD_BF_214_308_N.png,0,0,0,0,4,27,407,65,,,,,,,,,,,,2023-04-07_19h50.45.988,FaceAttractiveness,2022.2.5,144.85091218899765,
treatment,0% Never,100% Always,images\ LIP_CFD_AF_237_223_N.png,0,0,0,0,4,28,408,43,,,,,,,,,,,,2023-04-07_19h50.45.988,FaceAttractiveness,2022.2.5,144.85091218899765,
treatment,0% Never,100% Always,images\ LCHEEK_035_M_F_N_A.png,0,0,0,0,4,29,409,20,,,,,,,,,,,,2023-04-07_19h50.45.988,FaceAttractiveness,2022.2.5,144.85091218899765,
treatment,0% Never,100% Always,images\ NASALTIP_CFD_LF_224_176_N.png,0,0,0,0,4,30,410,69,,,,,,,,,,,,2023-04-07_19h50.45.988,FaceAttractiveness,2022.2.5,144.85091218899765,
treatment,0% Never,100% Always,"images\ LCHEEK_136_M_M_N_A.png
",0,0,0,0,4,31,411,22,,,,,,,,,,,,2023-04-07_19h50.45.988,FaceAttractiveness,2022.2.5,144.85091218899765,
treatment,0% Never,100% Always,images\ LCHEEK_CFD_WF_200_099_N.png,0,0,0,0,4,32,412,35,,,,,,,,,,,,2023-04-07_19h50.45.988,FaceAttractiveness,2022.2.5,144.85091218899765,
treatment,0% Never,100% Always,images\FOREHEAD_CFD_WF_250_167_N.png,0,0,0,0,4,33,413,17,,,,,,,,,,,,2023-04-07_19h50.45.988,FaceAttractiveness,2022.2.5,144.85091218899765,
treatment,0% Never,100% Always,images\FOREHEAD_CFD_LM_203_026_N.png,0,0,0,0,4,34,414,14,,,,,,,,,,,,2023-04-07_19h50.45.988,FaceAttractiveness,2022.2.5,144.85091218899765,
treatment,0% Never,100% Always,images\ LCHEEK_CFD_WM_212_097_N.png,0,0,0,0,4,35,415,37,,,,,,,,,,,,2023-04-07_19h50.45.988,FaceAttractiveness,2022.2.5,144.85091218899765,
treatment,0% Never,100% Always,images\FOREHEAD_006_M_F_N_A.png,0,0,0,0,4,36,416,0,,,,,,,,,,,,2023-04-07_19h50.45.988,FaceAttractiveness,2022.2.5,144.85091218899765,
treatment,0% Never,100% Always,"images\ LIP_CFD_BM_234_172_N.png
",0,0,0,0,4,37,417,49,,,,,,,,,,,,2023-04-07_19h50.45.988,FaceAttractiveness,2022.2.5,144.85091218899765,
treatment,0% Never,100% Always,images\ LIP_CFD_BF_224_002_N.png,0,0,0,0,4,38,418,47,,,,,,,,,,,,2023-04-07_19h50.45.988,FaceAttractiveness,2022.2.5,144.85091218899765,
treatment,0% Never,100% Always,images\ LIP_CFD_BF_214_308_N.png,0,0,0,0,4,39,419,46,,,,,,,,,,,,2023-04-07_19h50.45.988,FaceAttractiveness,2022.2.5,144.85091218899765,
treatment,0% Never,100% Always,images\FOREHEAD_CFD_WF_200_099_N.png,0,0,0,0,4,40,420,16,,,,,,,,,,,,2023-04-07_19h50.45.988,FaceAttractiveness,2022.2.5,144.85091218899765,
treatment,0% Never,100% Always,images\ LIP_CFD_WF_250_167_N.png,0,0,0,0,4,41,421,55,,,,,,,,,,,,2023-04-07_19h50.45.988,FaceAttractiveness,2022.2.5,144.85091218899765,
treatment,0% Never,100% Always,images\FOREHEAD_CFD_AF_237_223_N.png,0,0,0,0,4,42,422,5,,,,,,,,,,,,2023-04-07_19h50.45.988,FaceAttractiveness,2022.2.5,144.85091218899765,
treatment,0% Never,100% Always,images\ LIP_CFD_WM_212_097_N.png,0,0,0,0,4,43,423,56,,,,,,,,,,,,2023-04-07_19h50.45.988,FaceAttractiveness,2022.2.5,144.85091218899765,
treatment,0% Never,100% Always,images\ NASALTIP_CFD_AF_245_143_N.png,0,0,0,0,4,44,424,63,,,,,,,,,,,,2023-04-07_19h50.45.988,FaceAttractiveness,2022.2.5,144.85091218899765,
treatment,0% Never,100% Always,images\ NASALTIP_CFD_BM_213_134_N.png,0,0,0,0,4,45,425,67,,,,,,,,,,,,2023-04-07_19h50.45.988,FaceAttractiveness,2022.2.5,144.85091218899765,
treatment,0% Never,100% Always,images\ LCHEEK_CFD_AF_237_223_N.png,0,0,0,0,4,46,426,24,,,,,,,,,,,,2023-04-07_19h50.45.988,FaceAttractiveness,2022.2.5,144.85091218899765,
treatment,0% Never,100% Always,images\FOREHEAD_CFD_AM_233_236_N.png,0,0,0,0,4,47,427,7,,,,,,,,,,,,2023-04-07_19h50.45.988,FaceAttractiveness,2022.2.5,144.85091218899765,
treatment,0% Never,100% Always,"images\ LCHEEK_CFD_WF_002_004_N.png
",0,0,0,0,4,48,428,34,,,,,,,,,,,,2023-04-07_19h50.45.988,FaceAttractiveness,2022.2.5,144.85091218899765,
treatment,0% Never,100% Always,images\ RCHEEK_CFD_BF_214_308_N.png,0,0,0,0,4,49,429,84,,,,,,,,,,,,2023-04-07_19h50.45.988,FaceAttractiveness,2022.2.5,144.85091218899765,
treatment,0% Never,100% Always,"images\ NASALTIP_CFD_WF_002_004_N.png
",0,0,0,0,4,50,430,72,,,,,,,,,,,,2023-04-07_19h50.45.988,FaceAttractiveness,2022.2.5,144.85091218899765,
treatment,0% Never,100% Always,images\ RCHEEK_CFD_AF_245_143_N.png,0,0,0,0,4,51,431,82,,,,,,,,,,,,2023-04-07_19h50.45.988,FaceAttractiveness,2022.2.5,144.85091218899765,
treatment,0% Never,100% Always,images\ LCHEEK_CFD_AF_231_357_N.png,0,0,0,0,4,52,432,23,,,,,,,,,,,,2023-04-07_19h50.45.988,FaceAttractiveness,2022.2.5,144.85091218899765,
treatment,0% Never,100% Always,"images\ LIP_CFD_WF_002_004_N.png
",0,0,0,0,4,53,433,53,,,,,,,,,,,,2023-04-07_19h50.45.988,FaceAttractiveness,2022.2.5,144.85091218899765,
treatment,0% Never,100% Always,images\FOREHEAD_CFD_BM_234_172_N.png,0,0,0,0,4,54,434,11,,,,,,,,,,,,2023-04-07_19h50.45.988,FaceAttractiveness,2022.2.5,144.85091218899765,
treatment,0% Never,100% Always,images\ NASALTIP_CFD_WF_200_099_N.png,0,0,0,0,4,55,435,73,,,,,,,,,,,,2023-04-07_19h50.45.988,FaceAttractiveness,2022.2.5,144.85091218899765,
treatment,0% Never,100% Always,images\ LCHEEK_CFD_BF_214_308_N.png,0,0,0,0,4,56,436,27,,,,,,,,,,,,2023-04-07_19h50.45.988,FaceAttractiveness,2022.2.5,144.85091218899765,
treatment,0% Never,100% Always,images\FOREHEAD_CFD_BF_224_002_N.png,0,0,0,0,4,57,437,9,,,,,,,,,,,,2023-04-07_19h50.45.988,FaceAttractiveness,2022.2.5,144.85091218899765,
treatment,0% Never,100% Always,images\ LCHEEK_CFD_LF_224_176_N.png,0,0,0,0,4,58,438,31,,,,,,,,,,,,2023-04-07_19h50.45.988,FaceAttractiveness,2022.2.5,144.85091218899765,
treatment,0% Never,100% Always,images\ RCHEEK_CFD_LM_203_026_N.png,0,0,0,0,4,59,439,90,,,,,,,,,,,,2023-04-07_19h50.45.988,FaceAttractiveness,2022.2.5,144.85091218899765,
treatment,0% Never,100% Always,images\ LIP_035_M_F_N_A.png,0,0,0,0,4,60,440,39,,,,,,,,,,,,2023-04-07_19h50.45.988,FaceAttractiveness,2022.2.5,144.85091218899765,
treatment,0% Never,100% Always,images\ LIP_CFD_AF_245_143_N.png,0,0,0,0,4,61,441,44,,,,,,,,,,,,2023-04-07_19h50.45.988,FaceAttractiveness,2022.2.5,144.85091218899765,
treatment,0% Never,100% Always,images\ LIP_CFD_WF_200_099_N.png,0,0,0,0,4,62,442,54,,,,,,,,,,,,2023-04-07_19h50.45.988,FaceAttractiveness,2022.2.5,144.85091218899765,
treatment,0% Never,100% Always,"images\ LIP_136_M_M_N_A.png
",0,0,0,0,4,63,443,41,,,,,,,,,,,,2023-04-07_19h50.45.988,FaceAttractiveness,2022.2.5,144.85091218899765,
treatment,0% Never,100% Always,images\ NASALTIP_087_M_M_N_A.png,0,0,0,0,4,64,444,59,,,,,,,,,,,,2023-04-07_19h50.45.988,FaceAttractiveness,2022.2.5,144.85091218899765,
treatment,0% Never,100% Always,images\ RCHEEK_087_M_M_N_A.png,0,0,0,0,4,65,445,78,,,,,,,,,,,,2023-04-07_19h50.45.988,FaceAttractiveness,2022.2.5,144.85091218899765,
treatment,0% Never,100% Always,images\FOREHEAD_CFD_LF_224_176_N.png,0,0,0,0,4,66,446,12,,,,,,,,,,,,2023-04-07_19h50.45.988,FaceAttractiveness,2022.2.5,144.85091218899765,
treatment,0% Never,100% Always,images\ LIP_CFD_BM_213_134_N.png,0,0,0,0,4,67,447,48,,,,,,,,,,,,2023-04-07_19h50.45.988,FaceAttractiveness,2022.2.5,144.85091218899765,
treatment,0% Never,100% Always,"images\ NASALTIP_136_M_M_N_A.png
",0,0,0,0,4,68,448,60,,,,,,,,,,,,2023-04-07_19h50.45.988,FaceAttractiveness,2022.2.5,144.85091218899765,
treatment,0% Never,100% Always,images\ NASALTIP_CFD_AF_231_357_N.png,0,0,0,0,4,69,449,61,,,,,,,,,,,,2023-04-07_19h50.45.988,FaceAttractiveness,2022.2.5,144.85091218899765,
treatment,0% Never,100% Always,images\FOREHEAD_CFD_AF_231_357_N.png,0,0,0,0,4,70,450,4,,,,,,,,,,,,2023-04-07_19h50.45.988,FaceAttractiveness,2022.2.5,144.85091218899765,
treatment,0% Never,100% Always,images\ LIP_087_M_M_N_A.png,0,0,0,0,4,71,451,40,,,,,,,,,,,,2023-04-07_19h50.45.988,FaceAttractiveness,2022.2.5,144.85091218899765,
treatment,0% Never,100% Always,images\ RCHEEK_CFD_WF_200_099_N.png,0,0,0,0,4,72,452,92,,,,,,,,,,,,2023-04-07_19h50.45.988,FaceAttractiveness,2022.2.5,144.85091218899765,
treatment,0% Never,100% Always,images\ LIP_CFD_AF_231_357_N.png,0,0,0,0,4,73,453,42,,,,,,,,,,,,2023-04-07_19h50.45.988,FaceAttractiveness,2022.2.5,144.85091218899765,
treatment,0% Never,100% Always,images\FOREHEAD_CFD_LM_201_057_N.png,0,0,0,0,4,74,454,13,,,,,,,,,,,,2023-04-07_19h50.45.988,FaceAttractiveness,2022.2.5,144.85091218899765,
treatment,0% Never,100% Always,images\ RCHEEK_CFD_BF_224_002_N.png,0,0,0,0,4,75,455,85,,,,,,,,,,,,2023-04-07_19h50.45.988,FaceAttractiveness,2022.2.5,144.85091218899765,
treatment,0% Never,100% Always,images\ LIP_CFD_LF_224_176_N.png,0,0,0,0,4,76,456,50,,,,,,,,,,,,2023-04-07_19h50.45.988,FaceAttractiveness,2022.2.5,144.85091218899765,
treatment,0% Never,100% Always,images\FOREHEAD_136_M_M_N_A.png,0,0,0,0,4,77,457,3,,,,,,,,,,,,2023-04-07_19h50.45.988,FaceAttractiveness,2022.2.5,144.85091218899765,
treatment,0% Never,100% Always,"images\ NASALTIP_CFD_AM_233_236_N.png
",0,0,0,0,4,78,458,64,,,,,,,,,,,,2023-04-07_19h50.45.988,FaceAttractiveness,2022.2.5,144.85091218899765,
treatment,0% Never,100% Always,images\ LCHEEK_CFD_BF_224_002_N.png,0,0,0,0,4,79,459,28,,,,,,,,,,,,2023-04-07_19h50.45.988,FaceAttractiveness,2022.2.5,144.85091218899765,
treatment,0% Never,100% Always,"images\ NASALTIP_CFD_BM_234_172_N.png
",0,0,0,0,4,80,460,68,,,,,,,,,,,,2023-04-07_19h50.45.988,FaceAttractiveness,2022.2.5,144.85091218899765,
treatment,0% Never,100% Always,images\FOREHEAD_CFD_BF_214_308_N.png,0,0,0,0,4,81,461,8,,,,,,,,,,,,2023-04-07_19h50.45.988,FaceAttractiveness,2022.2.5,144.85091218899765,
treatment,0% Never,100% Always,images\ RCHEEK_CFD_AF_231_357_N.png,0,0,0,0,4,82,462,80,,,,,,,,,,,,2023-04-07_19h50.45.988,FaceAttractiveness,2022.2.5,144.85091218899765,
treatment,0% Never,100% Always,"images\ LIP_CFD_AM_233_236_N.png
",0,0,0,0,4,83,463,45,,,,,,,,,,,,2023-04-07_19h50.45.988,FaceAttractiveness,2022.2.5,144.85091218899765,
treatment,0% Never,100% Always,images\ LIP_006_M_F_N_A.png,0,0,0,0,4,84,464,38,,,,,,,,,,,,2023-04-07_19h50.45.988,FaceAttractiveness,2022.2.5,144.85091218899765,
treatment,0% Never,100% Always,"images\ RCHEEK_CFD_BM_234_172_N.png
",0,0,0,0,4,85,465,87,,,,,,,,,,,,2023-04-07_19h50.45.988,FaceAttractiveness,2022.2.5,144.85091218899765,
treatment,0% Never,100% Always,images\FOREHEAD_087_M_M_N_A.png,0,0,0,0,4,86,466,2,,,,,,,,,,,,2023-04-07_19h50.45.988,FaceAttractiveness,2022.2.5,144.85091218899765,
treatment,0% Never,100% Always,images\ LCHEEK_CFD_WF_250_167_N.png,0,0,0,0,4,87,467,36,,,,,,,,,,,,2023-04-07_19h50.45.988,FaceAttractiveness,2022.2.5,144.85091218899765,
treatment,0% Never,100% Always,images\ NASALTIP_CFD_WF_250_167_N.png,0,0,0,0,4,88,468,74,,,,,,,,,,,,2023-04-07_19h50.45.988,FaceAttractiveness,2022.2.5,144.85091218899765,
treatment,0% Never,100% Always,images\ LCHEEK_CFD_LM_201_057_N.png,0,0,0,0,4,89,469,32,,,,,,,,,,,,2023-04-07_19h50.45.988,FaceAttractiveness,2022.2.5,144.85091218899765,
treatment,0% Never,100% Always,images\FOREHEAD_CFD_WM_212_097_N.png,0,0,0,0,4,90,470,18,,,,,,,,,,,,2023-04-07_19h50.45.988,FaceAttractiveness,2022.2.5,144.85091218899765,
treatment,0% Never,100% Always,images\ RCHEEK_CFD_AF_237_223_N.png,0,0,0,0,4,91,471,81,,,,,,,,,,,,2023-04-07_19h50.45.988,FaceAttractiveness,2022.2.5,144.85091218899765,
treatment,0% Never,100% Always,images\ LIP_CFD_LM_203_026_N.png,0,0,0,0,4,92,472,52,,,,,,,,,,,,2023-04-07_19h50.45.988,FaceAttractiveness,2022.2.5,144.85091218899765,
treatment,0% Never,100% Always,images\ NASALTIP_CFD_WM_212_097_N.png,0,0,0,0,4,93,473,75,,,,,,,,,,,,2023-04-07_19h50.45.988,FaceAttractiveness,2022.2.5,144.85091218899765,
treatment,0% Never,100% Always,"images\ LCHEEK_CFD_AM_233_236_N.png
",0,0,0,0,4,94,474,26,,,,,,,,,,,,2023-04-07_19h50.45.988,FaceAttractiveness,2022.2.5,144.85091218899765,
treatment,0% Never,100% Always,images\ NASALTIP_CFD_AF_231_357_N.png,0,0,0,0,5,0,475,61,,,,,,,,,,,,2023-04-07_19h50.45.988,FaceAttractiveness,2022.2.5,144.85091218899765,
treatment,0% Never,100% Always,images\FOREHEAD_CFD_LM_201_057_N.png,0,0,0,0,5,1,476,13,,,,,,,,,,,,2023-04-07_19h50.45.988,FaceAttractiveness,2022.2.5,144.85091218899765,
treatment,0% Never,100% Always,images\ RCHEEK_CFD_LM_201_057_N.png,0,0,0,0,5,2,477,89,,,,,,,,,,,,2023-04-07_19h50.45.988,FaceAttractiveness,2022.2.5,144.85091218899765,
treatment,0% Never,100% Always,images\ NASALTIP_CFD_WF_250_167_N.png,0,0,0,0,5,3,478,74,,,,,,,,,,,,2023-04-07_19h50.45.988,FaceAttractiveness,2022.2.5,144.85091218899765,
treatment,0% Never,100% Always,images\ NASALTIP_CFD_BF_214_308_N.png,0,0,0,0,5,4,479,65,,,,,,,,,,,,2023-04-07_19h50.45.988,FaceAttractiveness,2022.2.5,144.85091218899765,
treatment,0% Never,100% Always,images\FOREHEAD_CFD_AF_231_357_N.png,0,0,0,0,5,5,480,4,,,,,,,,,,,,2023-04-07_19h50.45.988,FaceAttractiveness,2022.2.5,144.85091218899765,
treatment,0% Never,100% Always,images\ LCHEEK_CFD_AF_245_143_N.png,0,0,0,0,5,6,481,25,,,,,,,,,,,,2023-04-07_19h50.45.988,FaceAttractiveness,2022.2.5,144.85091218899765,
treatment,0% Never,100% Always,images\ LIP_006_M_F_N_A.png,0,0,0,0,5,7,482,38,,,,,,,,,,,,2023-04-07_19h50.45.988,FaceAttractiveness,2022.2.5,144.85091218899765,
treatment,0% Never,100% Always,images\ NASALTIP_CFD_BM_213_134_N.png,0,0,0,0,5,8,483,67,,,,,,,,,,,,2023-04-07_19h50.45.988,FaceAttractiveness,2022.2.5,144.85091218899765,
treatment,0% Never,100% Always,images\ NASALTIP_087_M_M_N_A.png,0,0,0,0,5,9,484,59,,,,,,,,,,,,2023-04-07_19h50.45.988,FaceAttractiveness,2022.2.5,144.85091218899765,
treatment,0% Never,100% Always,images\FOREHEAD_006_M_F_N_A.png,0,0,0,0,5,10,485,0,,,,,,,,,,,,2023-04-07_19h50.45.988,FaceAttractiveness,2022.2.5,144.85091218899765,
treatment,0% Never,100% Always,"images\ NASALTIP_136_M_M_N_A.png
",0,0,0,0,5,11,486,60,,,,,,,,,,,,2023-04-07_19h50.45.988,FaceAttractiveness,2022.2.5,144.85091218899765,
treatment,0% Never,100% Always,"images\ LIP_CFD_BM_234_172_N.png
",0,0,0,0,5,12,487,49,,,,,,,,,,,,2023-04-07_19h50.45.988,FaceAttractiveness,2022.2.5,144.85091218899765,
treatment,0% Never,100% Always,images\FOREHEAD_087_M_M_N_A.png,0,0,0,0,5,13,488,2,,,,,,,,,,,,2023-04-07_19h50.45.988,FaceAttractiveness,2022.2.5,144.85091218899765,
treatment,0% Never,100% Always,images\ LCHEEK_CFD_WF_250_167_N.png,0,0,0,0,5,14,489,36,,,,,,,,,,,,2023-04-07_19h50.45.988,FaceAttractiveness,2022.2.5,144.85091218899765,
treatment,0% Never,100% Always,images\ LCHEEK_CFD_BF_224_002_N.png,0,0,0,0,5,15,490,28,,,,,,,,,,,,2023-04-07_19h50.45.988,FaceAttractiveness,2022.2.5,144.85091218899765,
treatment,0% Never,100% Always,images\FOREHEAD_CFD_WF_002_004_N.png,0,0,0,0,5,16,491,15,,,,,,,,,,,,2023-04-07_19h50.45.988,FaceAttractiveness,2022.2.5,144.85091218899765,
treatment,0% Never,100% Always,images\ LIP_035_M_F_N_A.png,0,0,0,0,5,17,492,39,,,,,,,,,,,,2023-04-07_19h50.45.988,FaceAttractiveness,2022.2.5,144.85091218899765,
treatment,0% Never,100% Always,"images\ LCHEEK_CFD_WF_002_004_N.png
",0,0,0,0,5,18,493,34,,,,,,,,,,,,2023-04-07_19h50.45.988,FaceAttractiveness,2022.2.5,144.85091218899765,
treatment,0% Never,100% Always,images\ NASALTIP_035_M_F_N_A.png,0,0,0,0,5,19,494,58,,,,,,,,,,,,2023-04-07_19h50.45.988,FaceAttractiveness,2022.2.5,144.85091218899765,
treatment,0% Never,100% Always,images\ LIP_CFD_AF_237_223_N.png,0,0,0,0,5,20,495,43,,,,,,,,,,,,2023-04-07_19h50.45.988,FaceAttractiveness,2022.2.5,144.85091218899765,
treatment,0% Never,100% Always,images\ RCHEEK_006_M_F_N_A.png,0,0,0,0,5,21,496,76,,,,,,,,,,,,2023-04-07_19h50.45.988,FaceAttractiveness,2022.2.5,144.85091218899765,
treatment,0% Never,100% Always,images\ LCHEEK_CFD_LF_224_176_N.png,0,0,0,0,5,22,497,31,,,,,,,,,,,,2023-04-07_19h50.45.988,FaceAttractiveness,2022.2.5,144.85091218899765,
treatment,0% Never,100% Always,images\ LIP_CFD_AF_245_143_N.png,0,0,0,0,5,23,498,44,,,,,,,,,,,,2023-04-07_19h50.45.988,FaceAttractiveness,2022.2.5,144.85091218899765,
treatment,0% Never,100% Always,images\ NASALTIP_CFD_WM_212_097_N.png,0,0,0,0,5,24,499,75,,,,,,,,,,,,2023-04-07_19h50.45.988,FaceAttractiveness,2022.2.5,144.85091218899765,
treatment,0% Never,100% Always,"images\ LCHEEK_CFD_AM_233_236_N.png
",0,0,0,0,5,25,500,26,,,,,,,,,,,,2023-04-07_19h50.45.988,FaceAttractiveness,2022.2.5,144.85091218899765,
treatment,0% Never,100% Always,images\FOREHEAD_CFD_WF_200_099_N.png,0,0,0,0,5,26,501,16,,,,,,,,,,,,2023-04-07_19h50.45.988,FaceAttractiveness,2022.2.5,144.85091218899765,
treatment,0% Never,100% Always,"images\ NASALTIP_CFD_WF_002_004_N.png
",0,0,0,0,5,27,502,72,,,,,,,,,,,,2023-04-07_19h50.45.988,FaceAttractiveness,2022.2.5,144.85091218899765,
treatment,0% Never,100% Always,images\ NASALTIP_CFD_AF_237_223_N.png,0,0,0,0,5,28,503,62,,,,,,,,,,,,2023-04-07_19h50.45.988,FaceAttractiveness,2022.2.5,144.85091218899765,
treatment,0% Never,100% Always,images\ LCHEEK_CFD_LM_203_026_N.png,0,0,0,0,5,29,504,33,,,,,,,,,,,,2023-04-07_19h50.45.988,FaceAttractiveness,2022.2.5,144.85091218899765,
treatment,0% Never,100% Always,images\FOREHEAD_CFD_AF_245_143_N.png,0,0,0,0,5,30,505,6,,,,,,,,,,,,2023-04-07_19h50.45.988,FaceAttractiveness,2022.2.5,144.85091218899765,
treatment,0% Never,100% Always,images\ LCHEEK_CFD_WF_200_099_N.png,0,0,0,0,5,31,506,35,,,,,,,,,,,,2023-04-07_19h50.45.988,FaceAttractiveness,2022.2.5,144.85091218899765,
treatment,0% Never,100% Always,images\ LIP_087_M_M_N_A.png,0,0,0,0,5,32,507,40,,,,,,,,,,,,2023-04-07_19h50.45.988,FaceAttractiveness,2022.2.5,144.85091218899765,
treatment,0% Never,100% Always,images\ LIP_CFD_BF_214_308_N.png,0,0,0,0,5,33,508,46,,,,,,,,,,,,2023-04-07_19h50.45.988,FaceAttractiveness,2022.2.5,144.85091218899765,
treatment,0% Never,100% Always,images\ LCHEEK_035_M_F_N_A.png,0,0,0,0,5,34,509,20,,,,,,,,,,,,2023-04-07_19h50.45.988,FaceAttractiveness,2022.2.5,144.85091218899765,
treatment,0% Never,100% Always,images\ NASALTIP_CFD_LF_224_176_N.png,0,0,0,0,5,35,510,69,,,,,,,,,,,,2023-04-07_19h50.45.988,FaceAttractiveness,2022.2.5,144.85091218899765,
treatment,0% Never,100% Always,images\ LCHEEK_006_M_F_N_A.png,0,0,0,0,5,36,511,19,,,,,,,,,,,,2023-04-07_19h50.45.988,FaceAttractiveness,2022.2.5,144.85091218899765,
treatment,0% Never,100% Always,images\ LIP_CFD_WM_212_097_N.png,0,0,0,0,5,37,512,56,,,,,,,,,,,,2023-04-07_19h50.45.988,FaceAttractiveness,2022.2.5,144.85091218899765,
treatment,0% Never,100% Always,images\ LIP_CFD_WF_200_099_N.png,0,0,0,0,5,38,513,54,,,,,,,,,,,,2023-04-07_19h50.45.988,FaceAttractiveness,2022.2.5,144.85091218899765,
treatment,0% Never,100% Always,images\ RCHEEK_CFD_LM_203_026_N.png,0,0,0,0,5,39,514,90,,,,,,,,,,,,2023-04-07_19h50.45.988,FaceAttractiveness,2022.2.5,144.85091218899765,
treatment,0% Never,100% Always,images\FOREHEAD_CFD_LM_203_026_N.png,0,0,0,0,5,40,515,14,,,,,,,,,,,,2023-04-07_19h50.45.988,FaceAttractiveness,2022.2.5,144.85091218899765,
treatment,0% Never,100% Always,images\ RCHEEK_CFD_AF_245_143_N.png,0,0,0,0,5,41,516,82,,,,,,,,,,,,2023-04-07_19h50.45.988,FaceAttractiveness,2022.2.5,144.85091218899765,
treatment,0% Never,100% Always,"images\ RCHEEK_CFD_BM_234_172_N.png
",0,0,0,0,5,42,517,87,,,,,,,,,,,,2023-04-07_19h50.45.988,FaceAttractiveness,2022.2.5,144.85091218899765,
treatment,0% Never,100% Always,images\ RCHEEK_CFD_AF_237_223_N.png,0,0,0,0,5,43,518,81,,,,,,,,,,,,2023-04-07_19h50.45.988,FaceAttractiveness,2022.2.5,144.85091218899765,
treatment,0% Never,100% Always,images\ NASALTIP_006_M_F_N_A.png,0,0,0,0,5,44,519,57,,,,,,,,,,,,2023-04-07_19h50.45.988,FaceAttractiveness,2022.2.5,144.85091218899765,
treatment,0% Never,100% Always,images\FOREHEAD_CFD_BF_214_308_N.png,0,0,0,0,5,45,520,8,,,,,,,,,,,,2023-04-07_19h50.45.988,FaceAttractiveness,2022.2.5,144.85091218899765,
treatment,0% Never,100% Always,images\ LCHEEK_CFD_LM_201_057_N.png,0,0,0,0,5,46,521,32,,,,,,,,,,,,2023-04-07_19h50.45.988,FaceAttractiveness,2022.2.5,144.85091218899765,
treatment,0% Never,100% Always,images\ RCHEEK_087_M_M_N_A.png,0,0,0,0,5,47,522,78,,,,,,,,,,,,2023-04-07_19h50.45.988,FaceAttractiveness,2022.2.5,144.85091218899765,
treatment,0% Never,100% Always,"images\ LCHEEK_CFD_BM_234_172_N.png
",0,0,0,0,5,48,523,30,,,,,,,,,,,,2023-04-07_19h50.45.988,FaceAttractiveness,2022.2.5,144.85091218899765,
treatment,0% Never,100% Always,images\FOREHEAD_136_M_M_N_A.png,0,0,0,0,5,49,524,3,,,,,,,,,,,,2023-04-07_19h50.45.988,FaceAttractiveness,2022.2.5,144.85091218899765,
treatment,0% Never,100% Always,images\FOREHEAD_035_M_F_N_A.png,0,0,0,0,5,50,525,1,,,,,,,,,,,,2023-04-07_19h50.45.988,FaceAttractiveness,2022.2.5,144.85091218899765,
treatment,0% Never,100% Always,images\ RCHEEK_CFD_WF_250_167_N.png,0,0,0,0,5,51,526,93,,,,,,,,,,,,2023-04-07_19h50.45.988,FaceAttractiveness,2022.2.5,144.85091218899765,
treatment,0% Never,100% Always,images\ LCHEEK_CFD_AF_231_357_N.png,0,0,0,0,5,52,527,23,,,,,,,,,,,,2023-04-07_19h50.45.988,FaceAttractiveness,2022.2.5,144.85091218899765,
treatment,0% Never,100% Always,images\FOREHEAD_CFD_AM_233_236_N.png,0,0,0,0,5,53,528,7,,,,,,,,,,,,2023-04-07_19h50.45.988,FaceAttractiveness,2022.2.5,144.85091218899765,
treatment,0% Never,100% Always,images\ RCHEEK_CFD_WM_212_097_N.png,0,0,0,0,5,54,529,94,,,,,,,,,,,,2023-04-07_19h50.45.988,FaceAttractiveness,2022.2.5,144.85091218899765,
treatment,0% Never,100% Always,images\ RCHEEK_CFD_LF_224_176_N.png,0,0,0,0,5,55,530,88,,,,,,,,,,,,2023-04-07_19h50.45.988,FaceAttractiveness,2022.2.5,144.85091218899765,
treatment,0% Never,100% Always,"images\ LIP_CFD_WF_002_004_N.png
",0,0,0,0,5,56,531,53,,,,,,,,,,,,2023-04-07_19h50.45.988,FaceAttractiveness,2022.2.5,144.85091218899765,
treatment,0% Never,100% Always,images\FOREHEAD_CFD_BM_213_134_N.png,0,0,0,0,5,57,532,10,,,,,,,,,,,,2023-04-07_19h50.45.988,FaceAttractiveness,2022.2.5,144.85091218899765,
treatment,0% Never,100% Always,images\ RCHEEK_CFD_WF_200_099_N.png,0,0,0,0,5,58,533,92,,,,,,,,,,,,2023-04-07_19h50.45.988,FaceAttractiveness,2022.2.5,144.85091218899765,
treatment,0% Never,100% Always,"images\ RCHEEK_136_M_M_N_A.png
",0,0,0,0,5,59,534,79,,,,,,,,,,,,2023-04-07_19h50.45.988,FaceAttractiveness,2022.2.5,144.85091218899765,
treatment,0% Never,100% Always,images\FOREHEAD_CFD_LF_224_176_N.png,0,0,0,0,5,60,535,12,,,,,,,,,,,,2023-04-07_19h50.45.988,FaceAttractiveness,2022.2.5,144.85091218899765,
treatment,0% Never,100% Always,images\ RCHEEK_CFD_BF_214_308_N.png,0,0,0,0,5,61,536,84,,,,,,,,,,,,2023-04-07_19h50.45.988,FaceAttractiveness,2022.2.5,144.85091218899765,
treatment,0% Never,100% Always,"images\ RCHEEK_CFD_WF_002_004_N.png
",0,0,0,0,5,62,537,91,,,,,,,,,,,,2023-04-07_19h50.45.988,FaceAttractiveness,2022.2.5,144.85091218899765,
treatment,0% Never,100% Always,images\ RCHEEK_CFD_BF_224_002_N.png,0,0,0,0,5,63,538,85,,,,,,,,,,,,2023-04-07_19h50.45.988,FaceAttractiveness,2022.2.5,144.85091218899765,
treatment,0% Never,100% Always,images\ LCHEEK_CFD_WM_212_097_N.png,0,0,0,0,5,64,539,37,,,,,,,,,,,,2023-04-07_19h50.45.988,FaceAttractiveness,2022.2.5,144.85091218899765,
treatment,0% Never,100% Always,images\ NASALTIP_CFD_LM_203_026_N.png,0,0,0,0,5,65,540,71,,,,,,,,,,,,2023-04-07_19h50.45.988,FaceAttractiveness,2022.2.5,144.85091218899765,
treatment,0% Never,100% Always,images\ LIP_CFD_LM_201_057_N.png,0,0,0,0,5,66,541,51,,,,,,,,,,,,2023-04-07_19h50.45.988,FaceAttractiveness,2022.2.5,144.85091218899765,
treatment,0% Never,100% Always,images\ LIP_CFD_BM_213_134_N.png,0,0,0,0,5,67,542,48,,,,,,,,,,,,2023-04-07_19h50.45.988,FaceAttractiveness,2022.2.5,144.85091218899765,
treatment,0% Never,100% Always,images\ NASALTIP_CFD_WF_200_099_N.png,0,0,0,0,5,68,543,73,,,,,,,,,,,,2023-04-07_19h50.45.988,FaceAttractiveness,2022.2.5,144.85091218899765,
treatment,0% Never,100% Always,images\ LIP_CFD_WF_250_167_N.png,0,0,0,0,5,69,544,55,,,,,,,,,,,,2023-04-07_19h50.45.988,FaceAttractiveness,2022.2.5,144.85091218899765,
treatment,0% Never,100% Always,"images\ NASALTIP_CFD_BM_234_172_N.png
",0,0,0,0,5,70,545,68,,,,,,,,,,,,2023-04-07_19h50.45.988,FaceAttractiveness,2022.2.5,144.85091218899765,
treatment,0% Never,100% Always,images\ RCHEEK_CFD_BM_213_134_N.png,0,0,0,0,5,71,546,86,,,,,,,,,,,,2023-04-07_19h50.45.988,FaceAttractiveness,2022.2.5,144.85091218899765,
treatment,0% Never,100% Always,"images\ RCHEEK_CFD_AM_233_236_N.png
",0,0,0,0,5,72,547,83,,,,,,,,,,,,2023-04-07_19h50.45.988,FaceAttractiveness,2022.2.5,144.85091218899765,
treatment,0% Never,100% Always,images\ LIP_CFD_BF_224_002_N.png,0,0,0,0,5,73,548,47,,,,,,,,,,,,2023-04-07_19h50.45.988,FaceAttractiveness,2022.2.5,144.85091218899765,
treatment,0% Never,100% Always,images\ LCHEEK_CFD_BM_213_134_N.png,0,0,0,0,5,74,549,29,,,,,,,,,,,,2023-04-07_19h50.45.988,FaceAttractiveness,2022.2.5,144.85091218899765,
treatment,0% Never,100% Always,images\FOREHEAD_CFD_BF_224_002_N.png,0,0,0,0,5,75,550,9,,,,,,,,,,,,2023-04-07_19h50.45.988,FaceAttractiveness,2022.2.5,144.85091218899765,
treatment,0% Never,100% Always,"images\ NASALTIP_CFD_AM_233_236_N.png
",0,0,0,0,5,76,551,64,,,,,,,,,,,,2023-04-07_19h50.45.988,FaceAttractiveness,2022.2.5,144.85091218899765,
treatment,0% Never,100% Always,images\FOREHEAD_CFD_BM_234_172_N.png,0,0,0,0,5,77,552,11,,,,,,,,,,,,2023-04-07_19h50.45.988,FaceAttractiveness,2022.2.5,144.85091218899765,
treatment,0% Never,100% Always,"images\ LIP_CFD_AM_233_236_N.png
",0,0,0,0,5,78,553,45,,,,,,,,,,,,2023-04-07_19h50.45.988,FaceAttractiveness,2022.2.5,144.85091218899765,
treatment,0% Never,100% Always,images\ NASALTIP_CFD_AF_245_143_N.png,0,0,0,0,5,79,554,63,,,,,,,,,,,,2023-04-07_19h50.45.988,FaceAttractiveness,2022.2.5,144.85091218899765,
treatment,0% Never,100% Always,images\FOREHEAD_CFD_WF_250_167_N.png,0,0,0,0,5,80,555,17,,,,,,,,,,,,2023-04-07_19h50.45.988,FaceAttractiveness,2022.2.5,144.85091218899765,
treatment,0% Never,100% Always,images\ NASALTIP_CFD_LM_201_057_N.png,0,0,0,0,5,81,556,70,,,,,,,,,,,,2023-04-07_19h50.45.988,FaceAttractiveness,2022.2.5,144.85091218899765,
treatment,0% Never,100% Always,images\ LCHEEK_087_M_M_N_A.png,0,0,0,0,5,82,557,21,,,,,,,,,,,,2023-04-07_19h50.45.988,FaceAttractiveness,2022.2.5,144.85091218899765,
treatment,0% Never,100% Always,"images\ LCHEEK_136_M_M_N_A.png
",0,0,0,0,5,83,558,22,,,,,,,,,,,,2023-04-07_19h50.45.988,FaceAttractiveness,2022.2.5,144.85091218899765,
treatment,0% Never,100% Always,images\ LIP_CFD_LF_224_176_N.png,0,0,0,0,5,84,559,50,,,,,,,,,,,,2023-04-07_19h50.45.988,FaceAttractiveness,2022.2.5,144.85091218899765,
treatment,0% Never,100% Always,images\FOREHEAD_CFD_AF_237_223_N.png,0,0,0,0,5,85,560,5,,,,,,,,,,,,2023-04-07_19h50.45.988,FaceAttractiveness,2022.2.5,144.85091218899765,
treatment,0% Never,100% Always,images\ NASALTIP_CFD_BF_224_002_N.png,0,0,0,0,5,86,561,66,,,,,,,,,,,,2023-04-07_19h50.45.988,FaceAttractiveness,2022.2.5,144.85091218899765,
treatment,0% Never,100% Always,images\ RCHEEK_035_M_F_N_A.png,0,0,0,0,5,87,562,77,,,,,,,,,,,,2023-04-07_19h50.45.988,FaceAttractiveness,2022.2.5,144.85091218899765,
treatment,0% Never,100% Always,"images\ LIP_136_M_M_N_A.png
",0,0,0,0,5,88,563,41,,,,,,,,,,,,2023-04-07_19h50.45.988,FaceAttractiveness,2022.2.5,144.85091218899765,
treatment,0% Never,100% Always,images\ LIP_CFD_LM_203_026_N.png,0,0,0,0,5,89,564,52,,,,,,,,,,,,2023-04-07_19h50.45.988,FaceAttractiveness,2022.2.5,144.85091218899765,
treatment,0% Never,100% Always,images\ LCHEEK_CFD_AF_237_223_N.png,0,0,0,0,5,90,565,24,,,,,,,,,,,,2023-04-07_19h50.45.988,FaceAttractiveness,2022.2.5,144.85091218899765,
treatment,0% Never,100% Always,images\ LCHEEK_CFD_BF_214_308_N.png,0,0,0,0,5,91,566,27,,,,,,,,,,,,2023-04-07_19h50.45.988,FaceAttractiveness,2022.2.5,144.85091218899765,
treatment,0% Never,100% Always,images\ RCHEEK_CFD_AF_231_357_N.png,0,0,0,0,5,92,567,80,,,,,,,,,,,,2023-04-07_19h50.45.988,FaceAttractiveness,2022.2.5,144.85091218899765,
treatment,0% Never,100% Always,images\ LIP_CFD_AF_231_357_N.png,0,0,0,0,5,93,568,42,,,,,,,,,,,,2023-04-07_19h50.45.988,FaceAttractiveness,2022.2.5,144.85091218899765,
treatment,0% Never,100% Always,images\FOREHEAD_CFD_WM_212_097_N.png,0,0,0,0,5,94,569,18,,,,,,,,,,,,2023-04-07_19h50.45.988,FaceAttractiveness,2022.2.5,144.85091218899765,
treatment,0% Never,100% Always,images\ LCHEEK_006_M_F_N_A.png,0,0,0,0,6,0,570,19,,,,,,,,,,,,2023-04-07_19h50.45.988,FaceAttractiveness,2022.2.5,144.85091218899765,
treatment,0% Never,100% Always,images\FOREHEAD_CFD_WF_200_099_N.png,0,0,0,0,6,1,571,16,,,,,,,,,,,,2023-04-07_19h50.45.988,FaceAttractiveness,2022.2.5,144.85091218899765,
treatment,0% Never,100% Always,images\ RCHEEK_CFD_LM_203_026_N.png,0,0,0,0,6,2,572,90,,,,,,,,,,,,2023-04-07_19h50.45.988,FaceAttractiveness,2022.2.5,144.85091218899765,
treatment,0% Never,100% Always,images\FOREHEAD_CFD_BF_224_002_N.png,0,0,0,0,6,3,573,9,,,,,,,,,,,,2023-04-07_19h50.45.988,FaceAttractiveness,2022.2.5,144.85091218899765,
treatment,0% Never,100% Always,images\ RCHEEK_CFD_BF_224_002_N.png,0,0,0,0,6,4,574,85,,,,,,,,,,,,2023-04-07_19h50.45.988,FaceAttractiveness,2022.2.5,144.85091218899765,
treatment,0% Never,100% Always,images\ NASALTIP_CFD_BM_213_134_N.png,0,0,0,0,6,5,575,67,,,,,,,,,,,,2023-04-07_19h50.45.988,FaceAttractiveness,2022.2.5,144.85091218899765,
treatment,0% Never,100% Always,images\ NASALTIP_CFD_AF_245_143_N.png,0,0,0,0,6,6,576,63,,,,,,,,,,,,2023-04-07_19h50.45.988,FaceAttractiveness,2022.2.5,144.85091218899765,
treatment,0% Never,100% Always,images\ LIP_CFD_AF_237_223_N.png,0,0,0,0,6,7,577,43,,,,,,,,,,,,2023-04-07_19h50.45.988,FaceAttractiveness,2022.2.5,144.85091218899765,
treatment,0% Never,100% Always,"images\ NASALTIP_CFD_WF_002_004_N.png
",0,0,0,0,6,8,578,72,,,,,,,,,,,,2023-04-07_19h50.45.988,FaceAttractiveness,2022.2.5,144.85091218899765,
treatment,0% Never,100% Always,images\ RCHEEK_CFD_BF_214_308_N.png,0,0,0,0,6,9,579,84,,,,,,,,,,,,2023-04-07_19h50.45.988,FaceAttractiveness,2022.2.5,144.85091218899765,
treatment,0% Never,100% Always,images\FOREHEAD_136_M_M_N_A.png,0,0,0,0,6,10,580,3,,,,,,,,,,,,2023-04-07_19h50.45.988,FaceAttractiveness,2022.2.5,144.85091218899765,
treatment,0% Never,100% Always,images\FOREHEAD_CFD_WF_250_167_N.png,0,0,0,0,6,11,581,17,,,,,,,,,,,,2023-04-07_19h50.45.988,FaceAttractiveness,2022.2.5,144.85091218899765,
treatment,0% Never,100% Always,images\ LCHEEK_CFD_LM_203_026_N.png,0,0,0,0,6,12,582,33,,,,,,,,,,,,2023-04-07_19h50.45.988,FaceAttractiveness,2022.2.5,144.85091218899765,
treatment,0% Never,100% Always,"images\ LCHEEK_CFD_BM_234_172_N.png
",0,0,0,0,6,13,583,30,,,,,,,,,,,,2023-04-07_19h50.45.988,FaceAttractiveness,2022.2.5,144.85091218899765,
treatment,0% Never,100% Always,images\ LCHEEK_035_M_F_N_A.png,0,0,0,0,6,14,584,20,,,,,,,,,,,,2023-04-07_19h50.45.988,FaceAttractiveness,2022.2.5,144.85091218899765,
treatment,0% Never,100% Always,images\FOREHEAD_087_M_M_N_A.png,0,0,0,0,6,15,585,2,,,,,,,,,,,,2023-04-07_19h50.45.988,FaceAttractiveness,2022.2.5,144.85091218899765,
treatment,0% Never,100% Always,images\ LIP_CFD_LM_201_057_N.png,0,0,0,0,6,16,586,51,,,,,,,,,,,,2023-04-07_19h50.45.988,FaceAttractiveness,2022.2.5,144.85091218899765,
treatment,0% Never,100% Always,images\ LCHEEK_CFD_AF_231_357_N.png,0,0,0,0,6,17,587,23,,,,,,,,,,,,2023-04-07_19h50.45.988,FaceAttractiveness,2022.2.5,144.85091218899765,
treatment,0% Never,100% Always,"images\ NASALTIP_136_M_M_N_A.png
