Task,LeftLabel,RightLabel,faceImages,RatingBlockOrder.thisRepN,RatingBlockOrder.thisTrialN,RatingBlockOrder.thisN,RatingBlockOrder.thisIndex,originalFaceTrials.thisRepN,originalFaceTrials.thisTrialN,originalFaceTrials.thisN,originalFaceTrials.thisIndex,face_image_q.started,slider_trustworthy.started,text_trustworthy.started,slider_aggressive.started,text_aggressive.started,Confirm.started,mouse_7.started,Name,Gender,Age,Ethnicity,date,expName,psychopyVersion,frameRate,
treatment,0% Never,100% Always,images\ NASALTIP_CFD_AF_231_357_N.png,0,0,0,0,0,0,0,61,,,,,,,,,,,,2023-04-07_19h49.36.092,FaceAttractiveness,2022.2.5,144.1703285069056,
treatment,0% Never,100% Always,images\ LIP_CFD_AF_231_357_N.png,0,0,0,0,0,1,1,42,,,,,,,,,,,,2023-04-07_19h49.36.092,FaceAttractiveness,2022.2.5,144.1703285069056,
treatment,0% Never,100% Always,images\ LIP_006_M_F_N_A.png,0,0,0,0,0,2,2,38,,,,,,,,,,,,2023-04-07_19h49.36.092,FaceAttractiveness,2022.2.5,144.1703285069056,
treatment,0% Never,100% Always,images\ LIP_035_M_F_N_A.png,0,0,0,0,0,3,3,39,,,,,,,,,,,,2023-04-07_19h49.36.092,FaceAttractiveness,2022.2.5,144.1703285069056,
treatment,0% Never,100% Always,"images\ NASALTIP_136_M_M_N_A.png
",0,0,0,0,0,4,4,60,,,,,,,,,,,,2023-04-07_19h49.36.092,FaceAttractiveness,2022.2.5,144.1703285069056,
treatment,0% Never,100% Always,images\ NASALTIP_087_M_M_N_A.png,0,0,0,0,0,5,5,59,,,,,,,,,,,,2023-04-07_19h49.36.092,FaceAttractiveness,2022.2.5,144.1703285069056,
treatment,0% Never,100% Always,images\ NASALTIP_CFD_BF_224_002_N.png,0,0,0,0,0,6,6,66,,,,,,,,,,,,2023-04-07_19h49.36.092,FaceAttractiveness,2022.2.5,144.1703285069056,
treatment,0% Never,100% Always,images\ NASALTIP_CFD_WF_200_099_N.png,0,0,0,0,0,7,7,73,,,,,,,,,,,,2023-04-07_19h49.36.092,FaceAttractiveness,2022.2.5,144.1703285069056,
treatment,0% Never,100% Always,images\ LIP_CFD_BM_213_134_N.png,0,0,0,0,0,8,8,48,,,,,,,,,,,,2023-04-07_19h49.36.092,FaceAttractiveness,2022.2.5,144.1703285069056,
treatment,0% Never,100% Always,images\ LCHEEK_CFD_AF_245_143_N.png,0,0,0,0,0,9,9,25,,,,,,,,,,,,2023-04-07_19h49.36.092,FaceAttractiveness,2022.2.5,144.1703285069056,
treatment,0% Never,100% Always,images\ NASALTIP_CFD_BF_214_308_N.png,0,0,0,0,0,10,10,65,,,,,,,,,,,,2023-04-07_19h49.36.092,FaceAttractiveness,2022.2.5,144.1703285069056,
treatment,0% Never,100% Always,images\ RCHEEK_035_M_F_N_A.png,0,0,0,0,0,11,11,77,,,,,,,,,,,,2023-04-07_19h49.36.092,FaceAttractiveness,2022.2.5,144.1703285069056,
treatment,0% Never,100% Always,images\ LCHEEK_CFD_LM_203_026_N.png,0,0,0,0,0,12,12,33,,,,,,,,,,,,2023-04-07_19h49.36.092,FaceAttractiveness,2022.2.5,144.1703285069056,
treatment,0% Never,100% Always,images\FOREHEAD_CFD_LM_201_057_N.png,0,0,0,0,0,13,13,13,,,,,,,,,,,,2023-04-07_19h49.36.092,FaceAttractiveness,2022.2.5,144.1703285069056,
treatment,0% Never,100% Always,images\FOREHEAD_CFD_LM_203_026_N.png,0,0,0,0,0,14,14,14,,,,,,,,,,,,2023-04-07_19h49.36.092,FaceAttractiveness,2022.2.5,144.1703285069056,
treatment,0% Never,100% Always,images\ RCHEEK_CFD_WF_200_099_N.png,0,0,0,0,0,15,15,92,,,,,,,,,,,,2023-04-07_19h49.36.092,FaceAttractiveness,2022.2.5,144.1703285069056,
treatment,0% Never,100% Always,images\ LIP_CFD_LM_203_026_N.png,0,0,0,0,0,16,16,52,,,,,,,,,,,,2023-04-07_19h49.36.092,FaceAttractiveness,2022.2.5,144.1703285069056,
treatment,0% Never,100% Always,images\FOREHEAD_136_M_M_N_A.png,0,0,0,0,0,17,17,3,,,,,,,,,,,,2023-04-07_19h49.36.092,FaceAttractiveness,2022.2.5,144.1703285069056,
treatment,0% Never,100% Always,images\FOREHEAD_CFD_AF_245_143_N.png,0,0,0,0,0,18,18,6,,,,,,,,,,,,2023-04-07_19h49.36.092,FaceAttractiveness,2022.2.5,144.1703285069056,
treatment,0% Never,100% Always,images\FOREHEAD_CFD_BF_224_002_N.png,0,0,0,0,0,19,19,9,,,,,,,,,,,,2023-04-07_19h49.36.092,FaceAttractiveness,2022.2.5,144.1703285069056,
treatment,0% Never,100% Always,images\FOREHEAD_CFD_WM_212_097_N.png,0,0,0,0,0,20,20,18,,,,,,,,,,,,2023-04-07_19h49.36.092,FaceAttractiveness,2022.2.5,144.1703285069056,
treatment,0% Never,100% Always,images\FOREHEAD_CFD_BM_234_172_N.png,0,0,0,0,0,21,21,11,,,,,,,,,,,,2023-04-07_19h49.36.092,FaceAttractiveness,2022.2.5,144.1703285069056,
treatment,0% Never,100% Always,"images\ LCHEEK_CFD_BM_234_172_N.png
",0,0,0,0,0,22,22,30,,,,,,,,,,,,2023-04-07_19h49.36.092,FaceAttractiveness,2022.2.5,144.1703285069056,
treatment,0% Never,100% Always,"images\ LCHEEK_136_M_M_N_A.png
",0,0,0,0,0,23,23,22,,,,,,,,,,,,2023-04-07_19h49.36.092,FaceAttractiveness,2022.2.5,144.1703285069056,
treatment,0% Never,100% Always,images\ LIP_087_M_M_N_A.png,0,0,0,0,0,24,24,40,,,,,,,,,,,,2023-04-07_19h49.36.092,FaceAttractiveness,2022.2.5,144.1703285069056,
treatment,0% Never,100% Always,images\ RCHEEK_CFD_AF_237_223_N.png,0,0,0,0,0,25,25,81,,,,,,,,,,,,2023-04-07_19h49.36.092,FaceAttractiveness,2022.2.5,144.1703285069056,
treatment,0% Never,100% Always,images\ RCHEEK_CFD_WM_212_097_N.png,0,0,0,0,0,26,26,94,,,,,,,,,,,,2023-04-07_19h49.36.092,FaceAttractiveness,2022.2.5,144.1703285069056,
treatment,0% Never,100% Always,"images\ RCHEEK_CFD_AM_233_236_N.png
",0,0,0,0,0,27,27,83,,,,,,,,,,,,2023-04-07_19h49.36.092,FaceAttractiveness,2022.2.5,144.1703285069056,
treatment,0% Never,100% Always,images\FOREHEAD_035_M_F_N_A.png,0,0,0,0,0,28,28,1,,,,,,,,,,,,2023-04-07_19h49.36.092,FaceAttractiveness,2022.2.5,144.1703285069056,
treatment,0% Never,100% Always,images\FOREHEAD_CFD_BF_214_308_N.png,0,0,0,0,0,29,29,8,,,,,,,,,,,,2023-04-07_19h49.36.092,FaceAttractiveness,2022.2.5,144.1703285069056,
treatment,0% Never,100% Always,"images\ NASALTIP_CFD_WF_002_004_N.png
",0,0,0,0,0,30,30,72,,,,,,,,,,,,2023-04-07_19h49.36.092,FaceAttractiveness,2022.2.5,144.1703285069056,
treatment,0% Never,100% Always,images\ LIP_CFD_AF_245_143_N.png,0,0,0,0,0,31,31,44,,,,,,,,,,,,2023-04-07_19h49.36.092,FaceAttractiveness,2022.2.5,144.1703285069056,
treatment,0% Never,100% Always,images\ NASALTIP_CFD_LM_201_057_N.png,0,0,0,0,0,32,32,70,,,,,,,,,,,,2023-04-07_19h49.36.092,FaceAttractiveness,2022.2.5,144.1703285069056,
treatment,0% Never,100% Always,images\FOREHEAD_006_M_F_N_A.png,0,0,0,0,0,33,33,0,,,,,,,,,,,,2023-04-07_19h49.36.092,FaceAttractiveness,2022.2.5,144.1703285069056,
treatment,0% Never,100% Always,images\ NASALTIP_CFD_LM_203_026_N.png,0,0,0,0,0,34,34,71,,,,,,,,,,,,2023-04-07_19h49.36.092,FaceAttractiveness,2022.2.5,144.1703285069056,
treatment,0% Never,100% Always,"images\ RCHEEK_CFD_BM_234_172_N.png
",0,0,0,0,0,35,35,87,,,,,,,,,,,,2023-04-07_19h49.36.092,FaceAttractiveness,2022.2.5,144.1703285069056,
treatment,0% Never,100% Always,images\FOREHEAD_CFD_WF_002_004_N.png,0,0,0,0,0,36,36,15,,,,,,,,,,,,2023-04-07_19h49.36.092,FaceAttractiveness,2022.2.5,144.1703285069056,
treatment,0% Never,100% Always,images\ LIP_CFD_WF_250_167_N.png,0,0,0,0,0,37,37,55,,,,,,,,,,,,2023-04-07_19h49.36.092,FaceAttractiveness,2022.2.5,144.1703285069056,
treatment,0% Never,100% Always,images\ NASALTIP_CFD_AF_237_223_N.png,0,0,0,0,0,38,38,62,,,,,,,,,,,,2023-04-07_19h49.36.092,FaceAttractiveness,2022.2.5,144.1703285069056,
treatment,0% Never,100% Always,images\FOREHEAD_CFD_BM_213_134_N.png,0,0,0,0,0,39,39,10,,,,,,,,,,,,2023-04-07_19h49.36.092,FaceAttractiveness,2022.2.5,144.1703285069056,
treatment,0% Never,100% Always,images\ LCHEEK_CFD_AF_237_223_N.png,0,0,0,0,0,40,40,24,,,,,,,,,,,,2023-04-07_19h49.36.092,FaceAttractiveness,2022.2.5,144.1703285069056,
treatment,0% Never,100% Always,images\ RCHEEK_CFD_WF_250_167_N.png,0,0,0,0,0,41,41,93,,,,,,,,,,,,2023-04-07_19h49.36.092,FaceAttractiveness,2022.2.5,144.1703285069056,
treatment,0% Never,100% Always,images\ LIP_CFD_BF_224_002_N.png,0,0,0,0,0,42,42,47,,,,,,,,,,,,2023-04-07_19h49.36.092,FaceAttractiveness,2022.2.5,144.1703285069056,
treatment,0% Never,100% Always,images\ RCHEEK_006_M_F_N_A.png,0,0,0,0,0,43,43,76,,,,,,,,,,,,2023-04-07_19h49.36.092,FaceAttractiveness,2022.2.5,144.1703285069056,
treatment,0% Never,100% Always,images\FOREHEAD_CFD_WF_200_099_N.png,0,0,0,0,0,44,44,16,,,,,,,,,,,,2023-04-07_19h49.36.092,FaceAttractiveness,2022.2.5,144.1703285069056,
treatment,0% Never,100% Always,images\ RCHEEK_CFD_LM_201_057_N.png,0,0,0,0,0,45,45,89,,,,,,,,,,,,2023-04-07_19h49.36.092,FaceAttractiveness,2022.2.5,144.1703285069056,
treatment,0% Never,100% Always,"images\ LIP_CFD_BM_234_172_N.png
",0,0,0,0,0,46,46,49,,,,,,,,,,,,2023-04-07_19h49.36.092,FaceAttractiveness,2022.2.5,144.1703285069056,
treatment,0% Never,100% Always,images\ LCHEEK_CFD_BF_224_002_N.png,0,0,0,0,0,47,47,28,,,,,,,,,,,,2023-04-07_19h49.36.092,FaceAttractiveness,2022.2.5,144.1703285069056,
treatment,0% Never,100% Always,images\ LIP_CFD_LF_224_176_N.png,0,0,0,0,0,48,48,50,,,,,,,,,,,,2023-04-07_19h49.36.092,FaceAttractiveness,2022.2.5,144.1703285069056,
treatment,0% Never,100% Always,images\ RCHEEK_087_M_M_N_A.png,0,0,0,0,0,49,49,78,,,,,,,,,,,,2023-04-07_19h49.36.092,FaceAttractiveness,2022.2.5,144.1703285069056,
treatment,0% Never,100% Always,images\ LCHEEK_087_M_M_N_A.png,0,0,0,0,0,50,50,21,,,,,,,,,,,,2023-04-07_19h49.36.092,FaceAttractiveness,2022.2.5,144.1703285069056,
treatment,0% Never,100% Always,images\ NASALTIP_035_M_F_N_A.png,0,0,0,0,0,51,51,58,,,,,,,,,,,,2023-04-07_19h49.36.092,FaceAttractiveness,2022.2.5,144.1703285069056,
treatment,0% Never,100% Always,images\ LCHEEK_035_M_F_N_A.png,0,0,0,0,0,52,52,20,,,,,,,,,,,,2023-04-07_19h49.36.092,FaceAttractiveness,2022.2.5,144.1703285069056,
treatment,0% Never,100% Always,images\ NASALTIP_CFD_WF_250_167_N.png,0,0,0,0,0,53,53,74,,,,,,,,,,,,2023-04-07_19h49.36.092,FaceAttractiveness,2022.2.5,144.1703285069056,
treatment,0% Never,100% Always,images\ NASALTIP_CFD_AF_245_143_N.png,0,0,0,0,0,54,54,63,,,,,,,,,,,,2023-04-07_19h49.36.092,FaceAttractiveness,2022.2.5,144.1703285069056,
treatment,0% Never,100% Always,images\ RCHEEK_CFD_AF_231_357_N.png,0,0,0,0,0,55,55,80,,,,,,,,,,,,2023-04-07_19h49.36.092,FaceAttractiveness,2022.2.5,144.1703285069056,
treatment,0% Never,100% Always,images\ RCHEEK_CFD_AF_245_143_N.png,0,0,0,0,0,56,56,82,,,,,,,,,,,,2023-04-07_19h49.36.092,FaceAttractiveness,2022.2.5,144.1703285069056,
treatment,0% Never,100% Always,images\ LIP_CFD_WF_200_099_N.png,0,0,0,0,0,57,57,54,,,,,,,,,,,,2023-04-07_19h49.36.092,FaceAttractiveness,2022.2.5,144.1703285069056,
treatment,0% Never,100% Always,images\FOREHEAD_087_M_M_N_A.png,0,0,0,0,0,58,58,2,,,,,,,,,,,,2023-04-07_19h49.36.092,FaceAttractiveness,2022.2.5,144.1703285069056,
treatment,0% Never,100% Always,images\ RCHEEK_CFD_BF_214_308_N.png,0,0,0,0,0,59,59,84,,,,,,,,,,,,2023-04-07_19h49.36.092,FaceAttractiveness,2022.2.5,144.1703285069056,
treatment,0% Never,100% Always,images\FOREHEAD_CFD_AF_237_223_N.png,0,0,0,0,0,60,60,5,,,,,,,,,,,,2023-04-07_19h49.36.092,FaceAttractiveness,2022.2.5,144.1703285069056,
treatment,0% Never,100% Always,images\FOREHEAD_CFD_LF_224_176_N.png,0,0,0,0,0,61,61,12,,,,,,,,,,,,2023-04-07_19h49.36.092,FaceAttractiveness,2022.2.5,144.1703285069056,
treatment,0% Never,100% Always,images\ LCHEEK_006_M_F_N_A.png,0,0,0,0,0,62,62,19,,,,,,,,,,,,2023-04-07_19h49.36.092,FaceAttractiveness,2022.2.5,144.1703285069056,
treatment,0% Never,100% Always,images\ LCHEEK_CFD_BM_213_134_N.png,0,0,0,0,0,63,63,29,,,,,,,,,,,,2023-04-07_19h49.36.092,FaceAttractiveness,2022.2.5,144.1703285069056,
treatment,0% Never,100% Always,"images\ RCHEEK_136_M_M_N_A.png
",0,0,0,0,0,64,64,79,,,,,,,,,,,,2023-04-07_19h49.36.092,FaceAttractiveness,2022.2.5,144.1703285069056,
treatment,0% Never,100% Always,"images\ LIP_CFD_AM_233_236_N.png
",0,0,0,0,0,65,65,45,,,,,,,,,,,,2023-04-07_19h49.36.092,FaceAttractiveness,2022.2.5,144.1703285069056,
treatment,0% Never,100% Always,images\ NASALTIP_006_M_F_N_A.png,0,0,0,0,0,66,66,57,,,,,,,,,,,,2023-04-07_19h49.36.092,FaceAttractiveness,2022.2.5,144.1703285069056,
treatment,0% Never,100% Always,"images\ LCHEEK_CFD_WF_002_004_N.png
",0,0,0,0,0,67,67,34,,,,,,,,,,,,2023-04-07_19h49.36.092,FaceAttractiveness,2022.2.5,144.1703285069056,
treatment,0% Never,100% Always,"images\ LIP_CFD_WF_002_004_N.png
",0,0,0,0,0,68,68,53,,,,,,,,,,,,2023-04-07_19h49.36.092,FaceAttractiveness,2022.2.5,144.1703285069056,
treatment,0% Never,100% Always,"images\ LCHEEK_CFD_AM_233_236_N.png
",0,0,0,0,0,69,69,26,,,,,,,,,,,,2023-04-07_19h49.36.092,FaceAttractiveness,2022.2.5,144.1703285069056,
treatment,0% Never,100% Always,images\ LCHEEK_CFD_WF_250_167_N.png,0,0,0,0,0,70,70,36,,,,,,,,,,,,2023-04-07_19h49.36.092,FaceAttractiveness,2022.2.5,144.1703285069056,
treatment,0% Never,100% Always,images\ LCHEEK_CFD_WF_200_099_N.png,0,0,0,0,0,71,71,35,,,,,,,,,,,,2023-04-07_19h49.36.092,FaceAttractiveness,2022.2.5,144.1703285069056,
treatment,0% Never,100% Always,images\ LCHEEK_CFD_WM_212_097_N.png,0,0,0,0,0,72,72,37,,,,,,,,,,,,2023-04-07_19h49.36.092,FaceAttractiveness,2022.2.5,144.1703285069056,
treatment,0% Never,100% Always,images\ LIP_CFD_WM_212_097_N.png,0,0,0,0,0,73,73,56,,,,,,,,,,,,2023-04-07_19h49.36.092,FaceAttractiveness,2022.2.5,144.1703285069056,
treatment,0% Never,100% Always,"images\ RCHEEK_CFD_WF_002_004_N.png
",0,0,0,0,0,74,74,91,,,,,,,,,,,,2023-04-07_19h49.36.092,FaceAttractiveness,2022.2.5,144.1703285069056,
treatment,0% Never,100% Always,images\ LCHEEK_CFD_BF_214_308_N.png,0,0,0,0,0,75,75,27,,,,,,,,,,,,2023-04-07_19h49.36.092,FaceAttractiveness,2022.2.5,144.1703285069056,
treatment,0% Never,100% Always,"images\ NASALTIP_CFD_AM_233_236_N.png
",0,0,0,0,0,76,76,64,,,,,,,,,,,,2023-04-07_19h49.36.092,FaceAttractiveness,2022.2.5,144.1703285069056,
treatment,0% Never,100% Always,images\ RCHEEK_CFD_LF_224_176_N.png,0,0,0,0,0,77,77,88,,,,,,,,,,,,2023-04-07_19h49.36.092,FaceAttractiveness,2022.2.5,144.1703285069056,
treatment,0% Never,100% Always,images\ RCHEEK_CFD_BF_224_002_N.png,0,0,0,0,0,78,78,85,,,,,,,,,,,,2023-04-07_19h49.36.092,FaceAttractiveness,2022.2.5,144.1703285069056,
treatment,0% Never,100% Always,images\ LCHEEK_CFD_LM_201_057_N.png,0,0,0,0,0,79,79,32,,,,,,,,,,,,2023-04-07_19h49.36.092,FaceAttractiveness,2022.2.5,144.1703285069056,
treatment,0% Never,100% Always,images\ NASALTIP_CFD_LF_224_176_N.png,0,0,0,0,0,80,80,69,,,,,,,,,,,,2023-04-07_19h49.36.092,FaceAttractiveness,2022.2.5,144.1703285069056,
treatment,0% Never,100% Always,images\ LIP_CFD_BF_214_308_N.png,0,0,0,0,0,81,81,46,,,,,,,,,,,,2023-04-07_19h49.36.092,FaceAttractiveness,2022.2.5,144.1703285069056,
treatment,0% Never,100% Always,"images\ LIP_136_M_M_N_A.png
",0,0,0,0,0,82,82,41,,,,,,,,,,,,2023-04-07_19h49.36.092,FaceAttractiveness,2022.2.5,144.1703285069056,
treatment,0% Never,100% Always,images\ NASALTIP_CFD_WM_212_097_N.png,0,0,0,0,0,83,83,75,,,,,,,,,,,,2023-04-07_19h49.36.092,FaceAttractiveness,2022.2.5,144.1703285069056,
treatment,0% Never,100% Always,"images\ NASALTIP_CFD_BM_234_172_N.png
",0,0,0,0,0,84,84,68,,,,,,,,,,,,2023-04-07_19h49.36.092,FaceAttractiveness,2022.2.5,144.1703285069056,
treatment,0% Never,100% Always,images\FOREHEAD_CFD_AF_231_357_N.png,0,0,0,0,0,85,85,4,,,,,,,,,,,,2023-04-07_19h49.36.092,FaceAttractiveness,2022.2.5,144.1703285069056,
treatment,0% Never,100% Always,images\FOREHEAD_CFD_AM_233_236_N.png,0,0,0,0,0,86,86,7,,,,,,,,,,,,2023-04-07_19h49.36.092,FaceAttractiveness,2022.2.5,144.1703285069056,
treatment,0% Never,100% Always,images\ LCHEEK_CFD_LF_224_176_N.png,0,0,0,0,0,87,87,31,,,,,,,,,,,,2023-04-07_19h49.36.092,FaceAttractiveness,2022.2.5,144.1703285069056,
treatment,0% Never,100% Always,images\ LCHEEK_CFD_AF_231_357_N.png,0,0,0,0,0,88,88,23,,,,,,,,,,,,2023-04-07_19h49.36.092,FaceAttractiveness,2022.2.5,144.1703285069056,
treatment,0% Never,100% Always,images\ LIP_CFD_AF_237_223_N.png,0,0,0,0,0,89,89,43,,,,,,,,,,,,2023-04-07_19h49.36.092,FaceAttractiveness,2022.2.5,144.1703285069056,
treatment,0% Never,100% Always,images\ NASALTIP_CFD_BM_213_134_N.png,0,0,0,0,0,90,90,67,,,,,,,,,,,,2023-04-07_19h49.36.092,FaceAttractiveness,2022.2.5,144.1703285069056,
treatment,0% Never,100% Always,images\ RCHEEK_CFD_LM_203_026_N.png,0,0,0,0,0,91,91,90,,,,,,,,,,,,2023-04-07_19h49.36.092,FaceAttractiveness,2022.2.5,144.1703285069056,
treatment,0% Never,100% Always,images\ RCHEEK_CFD_BM_213_134_N.png,0,0,0,0,0,92,92,86,,,,,,,,,,,,2023-04-07_19h49.36.092,FaceAttractiveness,2022.2.5,144.1703285069056,
treatment,0% Never,100% Always,images\ LIP_CFD_LM_201_057_N.png,0,0,0,0,0,93,93,51,,,,,,,,,,,,2023-04-07_19h49.36.092,FaceAttractiveness,2022.2.5,144.1703285069056,
treatment,0% Never,100% Always,images\FOREHEAD_CFD_WF_250_167_N.png,0,0,0,0,0,94,94,17,,,,,,,,,,,,2023-04-07_19h49.36.092,FaceAttractiveness,2022.2.5,144.1703285069056,
treatment,0% Never,100% Always,"images\ LIP_CFD_WF_002_004_N.png
",0,0,0,0,1,0,95,53,,,,,,,,,,,,2023-04-07_19h49.36.092,FaceAttractiveness,2022.2.5,144.1703285069056,
treatment,0% Never,100% Always,images\ RCHEEK_087_M_M_N_A.png,0,0,0,0,1,1,96,78,,,,,,,,,,,,2023-04-07_19h49.36.092,FaceAttractiveness,2022.2.5,144.1703285069056,
treatment,0% Never,100% Always,images\FOREHEAD_006_M_F_N_A.png,0,0,0,0,1,2,97,0,,,,,,,,,,,,2023-04-07_19h49.36.092,FaceAttractiveness,2022.2.5,144.1703285069056,
treatment,0% Never,100% Always,images\ RCHEEK_CFD_WF_250_167_N.png,0,0,0,0,1,3,98,93,,,,,,,,,,,,2023-04-07_19h49.36.092,FaceAttractiveness,2022.2.5,144.1703285069056,
treatment,0% Never,100% Always,images\ RCHEEK_CFD_BM_213_134_N.png,0,0,0,0,1,4,99,86,,,,,,,,,,,,2023-04-07_19h49.36.092,FaceAttractiveness,2022.2.5,144.1703285069056,
treatment,0% Never,100% Always,images\FOREHEAD_CFD_WM_212_097_N.png,0,0,0,0,1,5,100,18,,,,,,,,,,,,2023-04-07_19h49.36.092,FaceAttractiveness,2022.2.5,144.1703285069056,
treatment,0% Never,100% Always,images\ RCHEEK_CFD_BF_214_308_N.png,0,0,0,0,1,6,101,84,,,,,,,,,,,,2023-04-07_19h49.36.092,FaceAttractiveness,2022.2.5,144.1703285069056,
treatment,0% Never,100% Always,images\ LIP_CFD_LF_224_176_N.png,0,0,0,0,1,7,102,50,,,,,,,,,,,,2023-04-07_19h49.36.092,FaceAttractiveness,2022.2.5,144.1703285069056,
treatment,0% Never,100% Always,images\ NASALTIP_CFD_WF_250_167_N.png,0,0,0,0,1,8,103,74,,,,,,,,,,,,2023-04-07_19h49.36.092,FaceAttractiveness,2022.2.5,144.1703285069056,
treatment,0% Never,100% Always,images\ LIP_006_M_F_N_A.png,0,0,0,0,1,9,104,38,,,,,,,,,,,,2023-04-07_19h49.36.092,FaceAttractiveness,2022.2.5,144.1703285069056,
treatment,0% Never,100% Always,images\ RCHEEK_CFD_LM_203_026_N.png,0,0,0,0,1,10,105,90,,,,,,,,,,,,2023-04-07_19h49.36.092,FaceAttractiveness,2022.2.5,144.1703285069056,
treatment,0% Never,100% Always,images\ LIP_CFD_LM_201_057_N.png,0,0,0,0,1,11,106,51,,,,,,,,,,,,2023-04-07_19h49.36.092,FaceAttractiveness,2022.2.5,144.1703285069056,
treatment,0% Never,100% Always,images\ LCHEEK_CFD_BM_213_134_N.png,0,0,0,0,1,12,107,29,,,,,,,,,,,,2023-04-07_19h49.36.092,FaceAttractiveness,2022.2.5,144.1703285069056,
treatment,0% Never,100% Always,images\ NASALTIP_CFD_BF_224_002_N.png,0,0,0,0,1,13,108,66,,,,,,,,,,,,2023-04-07_19h49.36.092,FaceAttractiveness,2022.2.5,144.1703285069056,
treatment,0% Never,100% Always,"images\ RCHEEK_136_M_M_N_A.png
",0,0,0,0,1,14,109,79,,,,,,,,,,,,2023-04-07_19h49.36.092,FaceAttractiveness,2022.2.5,144.1703285069056,
treatment,0% Never,100% Always,images\FOREHEAD_CFD_AF_237_223_N.png,0,0,0,0,1,15,110,5,,,,,,,,,,,,2023-04-07_19h49.36.092,FaceAttractiveness,2022.2.5,144.1703285069056,
treatment,0% Never,100% Always,images\ RCHEEK_CFD_AF_231_357_N.png,0,0,0,0,1,16,111,80,,,,,,,,,,,,2023-04-07_19h49.36.092,FaceAttractiveness,2022.2.5,144.1703285069056,
treatment,0% Never,100% Always,"images\ LIP_CFD_AM_233_236_N.png
",0,0,0,0,1,17,112,45,,,,,,,,,,,,2023-04-07_19h49.36.092,FaceAttractiveness,2022.2.5,144.1703285069056,
treatment,0% Never,100% Always,images\ NASALTIP_CFD_BF_214_308_N.png,0,0,0,0,1,18,113,65,,,,,,,,,,,,2023-04-07_19h49.36.092,FaceAttractiveness,2022.2.5,144.1703285069056,
treatment,0% Never,100% Always,images\ RCHEEK_CFD_WF_200_099_N.png,0,0,0,0,1,19,114,92,,,,,,,,,,,,2023-04-07_19h49.36.092,FaceAttractiveness,2022.2.5,144.1703285069056,
treatment,0% Never,100% Always,"images\ NASALTIP_CFD_BM_234_172_N.png
",0,0,0,0,1,20,115,68,,,,,,,,,,,,2023-04-07_19h49.36.092,FaceAttractiveness,2022.2.5,144.1703285069056,
treatment,0% Never,100% Always,images\ LIP_CFD_BM_213_134_N.png,0,0,0,0,1,21,116,48,,,,,,,,,,,,2023-04-07_19h49.36.092,FaceAttractiveness,2022.2.5,144.1703285069056,
treatment,0% Never,100% Always,images\ RCHEEK_CFD_WM_212_097_N.png,0,0,0,0,1,22,117,94,,,,,,,,,,,,2023-04-07_19h49.36.092,FaceAttractiveness,2022.2.5,144.1703285069056,
treatment,0% Never,100% Always,images\FOREHEAD_CFD_LF_224_176_N.png,0,0,0,0,1,23,118,12,,,,,,,,,,,,2023-04-07_19h49.36.092,FaceAttractiveness,2022.2.5,144.1703285069056,
treatment,0% Never,100% Always,images\ LCHEEK_CFD_LM_201_057_N.png,0,0,0,0,1,24,119,32,,,,,,,,,,,,2023-04-07_19h49.36.092,FaceAttractiveness,2022.2.5,144.1703285069056,
treatment,0% Never,100% Always,images\ LIP_CFD_BF_214_308_N.png,0,0,0,0,1,25,120,46,,,,,,,,,,,,2023-04-07_19h49.36.092,FaceAttractiveness,2022.2.5,144.1703285069056,
treatment,0% Never,100% Always,images\FOREHEAD_CFD_BM_213_134_N.png,0,0,0,0,1,26,121,10,,,,,,,,,,,,2023-04-07_19h49.36.092,FaceAttractiveness,2022.2.5,144.1703285069056,
treatment,0% Never,100% Always,images\ LIP_CFD_AF_245_143_N.png,0,0,0,0,1,27,122,44,,,,,,,,,,,,2023-04-07_19h49.36.092,FaceAttractiveness,2022.2.5,144.1703285069056,
treatment,0% Never,100% Always,images\FOREHEAD_CFD_WF_200_099_N.png,0,0,0,0,1,28,123,16,,,,,,,,,,,,2023-04-07_19h49.36.092,FaceAttractiveness,2022.2.5,144.1703285069056,
treatment,0% Never,100% Always,images\ LIP_CFD_AF_237_223_N.png,0,0,0,0,1,29,124,43,,,,,,,,,,,,2023-04-07_19h49.36.092,FaceAttractiveness,2022.2.5,144.1703285069056,
treatment,0% Never,100% Always,images\ LCHEEK_CFD_WF_200_099_N.png,0,0,0,0,1,30,125,35,,,,,,,,,,,,2023-04-07_19h49.36.092,FaceAttractiveness,2022.2.5,144.1703285069056,
treatment,0% Never,100% Always,images\FOREHEAD_CFD_WF_250_167_N.png,0,0,0,0,1,31,126,17,,,,,,,,,,,,2023-04-07_19h49.36.092,FaceAttractiveness,2022.2.5,144.1703285069056,
treatment,0% Never,100% Always,images\ LCHEEK_CFD_AF_237_223_N.png,0,0,0,0,1,32,127,24,,,,,,,,,,,,2023-04-07_19h49.36.092,FaceAttractiveness,2022.2.5,144.1703285069056,
treatment,0% Never,100% Always,images\ RCHEEK_CFD_AF_237_223_N.png,0,0,0,0,1,33,128,81,,,,,,,,,,,,2023-04-07_19h49.36.092,FaceAttractiveness,2022.2.5,144.1703285069056,
treatment,0% Never,100% Always,images\ RCHEEK_035_M_F_N_A.png,0,0,0,0,1,34,129,77,,,,,,,,,,,,2023-04-07_19h49.36.092,FaceAttractiveness,2022.2.5,144.1703285069056,
treatment,0% Never,100% Always,"images\ LIP_CFD_BM_234_172_N.png
",0,0,0,0,1,35,130,49,,,,,,,,,,,,2023-04-07_19h49.36.092,FaceAttractiveness,2022.2.5,144.1703285069056,
treatment,0% Never,100% Always,images\FOREHEAD_CFD_WF_002_004_N.png,0,0,0,0,1,36,131,15,,,,,,,,,,,,2023-04-07_19h49.36.092,FaceAttractiveness,2022.2.5,144.1703285069056,
treatment,0% Never,100% Always,"images\ LIP_136_M_M_N_A.png
",0,0,0,0,1,37,132,41,,,,,,,,,,,,2023-04-07_19h49.36.092,FaceAttractiveness,2022.2.5,144.1703285069056,
treatment,0% Never,100% Always,images\ LCHEEK_087_M_M_N_A.png,0,0,0,0,1,38,133,21,,,,,,,,,,,,2023-04-07_19h49.36.092,FaceAttractiveness,2022.2.5,144.1703285069056,
treatment,0% Never,100% Always,images\ LCHEEK_CFD_WF_250_167_N.png,0,0,0,0,1,39,134,36,,,,,,,,,,,,2023-04-07_19h49.36.092,FaceAttractiveness,2022.2.5,144.1703285069056,
treatment,0% Never,100% Always,images\ NASALTIP_CFD_LF_224_176_N.png,0,0,0,0,1,40,135,69,,,,,,,,,,,,2023-04-07_19h49.36.092,FaceAttractiveness,2022.2.5,144.1703285069056,
treatment,0% Never,100% Always,images\ LCHEEK_CFD_BF_224_002_N.png,0,0,0,0,1,41,136,28,,,,,,,,,,,,2023-04-07_19h49.36.092,FaceAttractiveness,2022.2.5,144.1703285069056,
treatment,0% Never,100% Always,images\ NASALTIP_CFD_LM_201_057_N.png,0,0,0,0,1,42,137,70,,,,,,,,,,,,2023-04-07_19h49.36.092,FaceAttractiveness,2022.2.5,144.1703285069056,
treatment,0% Never,100% Always,images\ RCHEEK_CFD_LM_201_057_N.png,0,0,0,0,1,43,138,89,,,,,,,,,,,,2023-04-07_19h49.36.092,FaceAttractiveness,2022.2.5,144.1703285069056,
treatment,0% Never,100% Always,images\ NASALTIP_CFD_AF_245_143_N.png,0,0,0,0,1,44,139,63,,,,,,,,,,,,2023-04-07_19h49.36.092,FaceAttractiveness,2022.2.5,144.1703285069056,
treatment,0% Never,100% Always,"images\ LCHEEK_CFD_WF_002_004_N.png
",0,0,0,0,1,45,140,34,,,,,,,,,,,,2023-04-07_19h49.36.092,FaceAttractiveness,2022.2.5,144.1703285069056,
treatment,0% Never,100% Always,images\ LIP_CFD_WM_212_097_N.png,0,0,0,0,1,46,141,56,,,,,,,,,,,,2023-04-07_19h49.36.092,FaceAttractiveness,2022.2.5,144.1703285069056,
treatment,0% Never,100% Always,images\ LCHEEK_CFD_LF_224_176_N.png,0,0,0,0,1,47,142,31,,,,,,,,,,,,2023-04-07_19h49.36.092,FaceAttractiveness,2022.2.5,144.1703285069056,
treatment,0% Never,100% Always,images\ LIP_CFD_WF_200_099_N.png,0,0,0,0,1,48,143,54,,,,,,,,,,,,2023-04-07_19h49.36.092,FaceAttractiveness,2022.2.5,144.1703285069056,
treatment,0% Never,100% Always,"images\ RCHEEK_CFD_WF_002_004_N.png
",0,0,0,0,1,49,144,91,,,,,,,,,,,,2023-04-07_19h49.36.092,FaceAttractiveness,2022.2.5,144.1703285069056,
treatment,0% Never,100% Always,images\ LIP_CFD_BF_224_002_N.png,0,0,0,0,1,50,145,47,,,,,,,,,,,,2023-04-07_19h49.36.092,FaceAttractiveness,2022.2.5,144.1703285069056,
treatment,0% Never,100% Always,images\ LCHEEK_CFD_WM_212_097_N.png,0,0,0,0,1,51,146,37,,,,,,,,,,,,2023-04-07_19h49.36.092,FaceAttractiveness,2022.2.5,144.1703285069056,
treatment,0% Never,100% Always,images\FOREHEAD_CFD_AF_245_143_N.png,0,0,0,0,1,52,147,6,,,,,,,,,,,,2023-04-07_19h49.36.092,FaceAttractiveness,2022.2.5,144.1703285069056,
treatment,0% Never,100% Always,images\FOREHEAD_CFD_AM_233_236_N.png,0,0,0,0,1,53,148,7,,,,,,,,,,,,2023-04-07_19h49.36.092,FaceAttractiveness,2022.2.5,144.1703285069056,
treatment,0% Never,100% Always,images\ NASALTIP_006_M_F_N_A.png,0,0,0,0,1,54,149,57,,,,,,,,,,,,2023-04-07_19h49.36.092,FaceAttractiveness,2022.2.5,144.1703285069056,
treatment,0% Never,100% Always,images\FOREHEAD_087_M_M_N_A.png,0,0,0,0,1,55,150,2,,,,,,,,,,,,2023-04-07_19h49.36.092,FaceAttractiveness,2022.2.5,144.1703285069056,
treatment,0% Never,100% Always,images\ LCHEEK_CFD_AF_245_143_N.png,0,0,0,0,1,56,151,25,,,,,,,,,,,,2023-04-07_19h49.36.092,FaceAttractiveness,2022.2.5,144.1703285069056,
treatment,0% Never,100% Always,images\FOREHEAD_136_M_M_N_A.png,0,0,0,0,1,57,152,3,,,,,,,,,,,,2023-04-07_19h49.36.092,FaceAttractiveness,2022.2.5,144.1703285069056,
treatment,0% Never,100% Always,"images\ RCHEEK_CFD_AM_233_236_N.png
",0,0,0,0,1,58,153,83,,,,,,,,,,,,2023-04-07_19h49.36.092,FaceAttractiveness,2022.2.5,144.1703285069056,
treatment,0% Never,100% Always,images\ NASALTIP_CFD_WM_212_097_N.png,0,0,0,0,1,59,154,75,,,,,,,,,,,,2023-04-07_19h49.36.092,FaceAttractiveness,2022.2.5,144.1703285069056,
treatment,0% Never,100% Always,images\FOREHEAD_CFD_LM_203_026_N.png,0,0,0,0,1,60,155,14,,,,,,,,,,,,2023-04-07_19h49.36.092,FaceAttractiveness,2022.2.5,144.1703285069056,
treatment,0% Never,100% Always,images\FOREHEAD_CFD_BF_224_002_N.png,0,0,0,0,1,61,156,9,,,,,,,,,,,,2023-04-07_19h49.36.092,FaceAttractiveness,2022.2.5,144.1703285069056,
treatment,0% Never,100% Always,images\ LIP_087_M_M_N_A.png,0,0,0,0,1,62,157,40,,,,,,,,,,,,2023-04-07_19h49.36.092,FaceAttractiveness,2022.2.5,144.1703285069056,
treatment,0% Never,100% Always,images\ LIP_CFD_WF_250_167_N.png,0,0,0,0,1,63,158,55,,,,,,,,,,,,2023-04-07_19h49.36.092,FaceAttractiveness,2022.2.5,144.1703285069056,
treatment,0% Never,100% Always,"images\ LCHEEK_136_M_M_N_A.png
",0,0,0,0,1,64,159,22,,,,,,,,,,,,2023-04-07_19h49.36.092,FaceAttractiveness,2022.2.5,144.1703285069056,
treatment,0% Never,100% Always,"images\ NASALTIP_CFD_WF_002_004_N.png
",0,0,0,0,1,65,160,72,,,,,,,,,,,,2023-04-07_19h49.36.092,FaceAttractiveness,2022.2.5,144.1703285069056,
treatment,0% Never,100% Always,images\ LIP_CFD_AF_231_357_N.png,0,0,0,0,1,66,161,42,,,,,,,,,,,,2023-04-07_19h49.36.092,FaceAttractiveness,2022.2.5,144.1703285069056,
treatment,0% Never,100% Always,images\ NASALTIP_CFD_BM_213_134_N.png,0,0,0,0,1,67,162,67,,,,,,,,,,,,2023-04-07_19h49.36.092,FaceAttractiveness,2022.2.5,144.1703285069056,
treatment,0% Never,100% Always,images\ LCHEEK_CFD_AF_231_357_N.png,0,0,0,0,1,68,163,23,,,,,,,,,,,,2023-04-07_19h49.36.092,FaceAttractiveness,2022.2.5,144.1703285069056,
treatment,0% Never,100% Always,images\FOREHEAD_CFD_BF_214_308_N.png,0,0,0,0,1,69,164,8,,,,,,,,,,,,2023-04-07_19h49.36.092,FaceAttractiveness,2022.2.5,144.1703285069056,
treatment,0% Never,100% Always,images\ NASALTIP_CFD_WF_200_099_N.png,0,0,0,0,1,70,165,73,,,,,,,,,,,,2023-04-07_19h49.36.092,FaceAttractiveness,2022.2.5,144.1703285069056,
treatment,0% Never,100% Always,images\FOREHEAD_CFD_BM_234_172_N.png,0,0,0,0,1,71,166,11,,,,,,,,,,,,2023-04-07_19h49.36.092,FaceAttractiveness,2022.2.5,144.1703285069056,
treatment,0% Never,100% Always,"images\ LCHEEK_CFD_AM_233_236_N.png
",0,0,0,0,1,72,167,26,,,,,,,,,,,,2023-04-07_19h49.36.092,FaceAttractiveness,2022.2.5,144.1703285069056,
treatment,0% Never,100% Always,images\ RCHEEK_CFD_AF_245_143_N.png,0,0,0,0,1,73,168,82,,,,,,,,,,,,2023-04-07_19h49.36.092,FaceAttractiveness,2022.2.5,144.1703285069056,
treatment,0% Never,100% Always,images\ NASALTIP_CFD_LM_203_026_N.png,0,0,0,0,1,74,169,71,,,,,,,,,,,,2023-04-07_19h49.36.092,FaceAttractiveness,2022.2.5,144.1703285069056,
treatment,0% Never,100% Always,images\FOREHEAD_035_M_F_N_A.png,0,0,0,0,1,75,170,1,,,,,,,,,,,,2023-04-07_19h49.36.092,FaceAttractiveness,2022.2.5,144.1703285069056,
treatment,0% Never,100% Always,images\ NASALTIP_035_M_F_N_A.png,0,0,0,0,1,76,171,58,,,,,,,,,,,,2023-04-07_19h49.36.092,FaceAttractiveness,2022.2.5,144.1703285069056,
treatment,0% Never,100% Always,images\ LCHEEK_035_M_F_N_A.png,0,0,0,0,1,77,172,20,,,,,,,,,,,,2023-04-07_19h49.36.092,FaceAttractiveness,2022.2.5,144.1703285069056,
treatment,0% Never,100% Always,"images\ NASALTIP_CFD_AM_233_236_N.png
",0,0,0,0,1,78,173,64,,,,,,,,,,,,2023-04-07_19h49.36.092,FaceAttractiveness,2022.2.5,144.1703285069056,
treatment,0% Never,100% Always,images\ LIP_CFD_LM_203_026_N.png,0,0,0,0,1,79,174,52,,,,,,,,,,,,2023-04-07_19h49.36.092,FaceAttractiveness,2022.2.5,144.1703285069056,
treatment,0% Never,100% Always,images\ RCHEEK_CFD_BF_224_002_N.png,0,0,0,0,1,80,175,85,,,,,,,,,,,,2023-04-07_19h49.36.092,FaceAttractiveness,2022.2.5,144.1703285069056,
treatment,0% Never,100% Always,images\FOREHEAD_CFD_AF_231_357_N.png,0,0,0,0,1,81,176,4,,,,,,,,,,,,2023-04-07_19h49.36.092,FaceAttractiveness,2022.2.5,144.1703285069056,
treatment,0% Never,100% Always,images\FOREHEAD_CFD_LM_201_057_N.png,0,0,0,0,1,82,177,13,,,,,,,,,,,,2023-04-07_19h49.36.092,FaceAttractiveness,2022.2.5,144.1703285069056,
treatment,0% Never,100% Always,images\ RCHEEK_006_M_F_N_A.png,0,0,0,0,1,83,178,76,,,,,,,,,,,,2023-04-07_19h49.36.092,FaceAttractiveness,2022.2.5,144.1703285069056,
treatment,0% Never,100% Always,images\ LCHEEK_CFD_BF_214_308_N.png,0,0,0,0,1,84,179,27,,,,,,,,,,,,2023-04-07_19h49.36.092,FaceAttractiveness,2022.2.5,144.1703285069056,
treatment,0% Never,100% Always,"images\ NASALTIP_136_M_M_N_A.png
",0,0,0,0,1,85,180,60,,,,,,,,,,,,2023-04-07_19h49.36.092,FaceAttractiveness,2022.2.5,144.1703285069056,
treatment,0% Never,100% Always,"images\ LCHEEK_CFD_BM_234_172_N.png
",0,0,0,0,1,86,181,30,,,,,,,,,,,,2023-04-07_19h49.36.092,FaceAttractiveness,2022.2.5,144.1703285069056,
treatment,0% Never,100% Always,images\ NASALTIP_CFD_AF_231_357_N.png,0,0,0,0,1,87,182,61,,,,,,,,,,,,2023-04-07_19h49.36.092,FaceAttractiveness,2022.2.5,144.1703285069056,
treatment,0% Never,100% Always,"images\ RCHEEK_CFD_BM_234_172_N.png
",0,0,0,0,1,88,183,87,,,,,,,,,,,,2023-04-07_19h49.36.092,FaceAttractiveness,2022.2.5,144.1703285069056,
treatment,0% Never,100% Always,images\ LCHEEK_CFD_LM_203_026_N.png,0,0,0,0,1,89,184,33,,,,,,,,,,,,2023-04-07_19h49.36.092,FaceAttractiveness,2022.2.5,144.1703285069056,
treatment,0% Never,100% Always,images\ RCHEEK_CFD_LF_224_176_N.png,0,0,0,0,1,90,185,88,,,,,,,,,,,,2023-04-07_19h49.36.092,FaceAttractiveness,2022.2.5,144.1703285069056,
treatment,0% Never,100% Always,images\ LCHEEK_006_M_F_N_A.png,0,0,0,0,1,91,186,19,,,,,,,,,,,,2023-04-07_19h49.36.092,FaceAttractiveness,2022.2.5,144.1703285069056,
treatment,0% Never,100% Always,images\ NASALTIP_087_M_M_N_A.png,0,0,0,0,1,92,187,59,,,,,,,,,,,,2023-04-07_19h49.36.092,FaceAttractiveness,2022.2.5,144.1703285069056,
treatment,0% Never,100% Always,images\ LIP_035_M_F_N_A.png,0,0,0,0,1,93,188,39,,,,,,,,,,,,2023-04-07_19h49.36.092,FaceAttractiveness,2022.2.5,144.1703285069056,
treatment,0% Never,100% Always,images\ NASALTIP_CFD_AF_237_223_N.png,0,0,0,0,1,94,189,62,,,,,,,,,,,,2023-04-07_19h49.36.092,FaceAttractiveness,2022.2.5,144.1703285069056,
treatment,0% Never,100% Always,images\ NASALTIP_CFD_BM_213_134_N.png,0,0,0,0,2,0,190,67,,,,,,,,,,,,2023-04-07_19h49.36.092,FaceAttractiveness,2022.2.5,144.1703285069056,
treatment,0% Never,100% Always,images\ NASALTIP_035_M_F_N_A.png,0,0,0,0,2,1,191,58,,,,,,,,,,,,2023-04-07_19h49.36.092,FaceAttractiveness,2022.2.5,144.1703285069056,
treatment,0% Never,100% Always,images\ LIP_CFD_LF_224_176_N.png,0,0,0,0,2,2,192,50,,,,,,,,,,,,2023-04-07_19h49.36.092,FaceAttractiveness,2022.2.5,144.1703285069056,
treatment,0% Never,100% Always,images\ NASALTIP_CFD_BF_224_002_N.png,0,0,0,0,2,3,193,66,,,,,,,,,,,,2023-04-07_19h49.36.092,FaceAttractiveness,2022.2.5,144.1703285069056,
treatment,0% Never,100% Always,images\ LCHEEK_CFD_AF_231_357_N.png,0,0,0,0,2,4,194,23,,,,,,,,,,,,2023-04-07_19h49.36.092,FaceAttractiveness,2022.2.5,144.1703285069056,
treatment,0% Never,100% Always,images\FOREHEAD_CFD_AF_231_357_N.png,0,0,0,0,2,5,195,4,,,,,,,,,,,,2023-04-07_19h49.36.092,FaceAttractiveness,2022.2.5,144.1703285069056,
treatment,0% Never,100% Always,images\ NASALTIP_CFD_LF_224_176_N.png,0,0,0,0,2,6,196,69,,,,,,,,,,,,2023-04-07_19h49.36.092,FaceAttractiveness,2022.2.5,144.1703285069056,
treatment,0% Never,100% Always,"images\ NASALTIP_CFD_WF_002_004_N.png
",0,0,0,0,2,7,197,72,,,,,,,,,,,,2023-04-07_19h49.36.092,FaceAttractiveness,2022.2.5,144.1703285069056,
treatment,0% Never,100% Always,images\FOREHEAD_CFD_BF_224_002_N.png,0,0,0,0,2,8,198,9,,,,,,,,,,,,2023-04-07_19h49.36.092,FaceAttractiveness,2022.2.5,144.1703285069056,
treatment,0% Never,100% Always,images\ NASALTIP_087_M_M_N_A.png,0,0,0,0,2,9,199,59,,,,,,,,,,,,2023-04-07_19h49.36.092,FaceAttractiveness,2022.2.5,144.1703285069056,
treatment,0% Never,100% Always,"images\ NASALTIP_CFD_AM_233_236_N.png
",0,0,0,0,2,10,200,64,,,,,,,,,,,,2023-04-07_19h49.36.092,FaceAttractiveness,2022.2.5,144.1703285069056,
treatment,0% Never,100% Always,images\ NASALTIP_CFD_WM_212_097_N.png,0,0,0,0,2,11,201,75,,,,,,,,,,,,2023-04-07_19h49.36.092,FaceAttractiveness,2022.2.5,144.1703285069056,
treatment,0% Never,100% Always,images\ LCHEEK_CFD_WF_250_167_N.png,0,0,0,0,2,12,202,36,,,,,,,,,,,,2023-04-07_19h49.36.092,FaceAttractiveness,2022.2.5,144.1703285069056,
treatment,0% Never,100% Always,images\ NASALTIP_CFD_LM_201_057_N.png,0,0,0,0,2,13,203,70,,,,,,,,,,,,2023-04-07_19h49.36.092,FaceAttractiveness,2022.2.5,144.1703285069056,
treatment,0% Never,100% Always,images\ NASALTIP_CFD_LM_203_026_N.png,0,0,0,0,2,14,204,71,,,,,,,,,,,,2023-04-07_19h49.36.092,FaceAttractiveness,2022.2.5,144.1703285069056,
treatment,0% Never,100% Always,images\ LCHEEK_006_M_F_N_A.png,0,0,0,0,2,15,205,19,,,,,,,,,,,,2023-04-07_19h49.36.092,FaceAttractiveness,2022.2.5,144.1703285069056,
treatment,0% Never,100% Always,images\ RCHEEK_CFD_BF_214_308_N.png,0,0,0,0,2,16,206,84,,,,,,,,,,,,2023-04-07_19h49.36.092,FaceAttractiveness,2022.2.5,144.1703285069056,
treatment,0% Never,100% Always,images\ LCHEEK_CFD_BF_224_002_N.png,0,0,0,0,2,17,207,28,,,,,,,,,,,,2023-04-07_19h49.36.092,FaceAttractiveness,2022.2.5,144.1703285069056,
treatment,0% Never,100% Always,images\ LCHEEK_CFD_LF_224_176_N.png,0,0,0,0,2,18,208,31,,,,,,,,,,,,2023-04-07_19h49.36.092,FaceAttractiveness,2022.2.5,144.1703285069056,
treatment,0% Never,100% Always,images\ LIP_CFD_AF_245_143_N.png,0,0,0,0,2,19,209,44,,,,,,,,,,,,2023-04-07_19h49.36.092,FaceAttractiveness,2022.2.5,144.1703285069056,
treatment,0% Never,100% Always,images\ LCHEEK_CFD_BM_213_134_N.png,0,0,0,0,2,20,210,29,,,,,,,,,,,,2023-04-07_19h49.36.092,FaceAttractiveness,2022.2.5,144.1703285069056,
treatment,0% Never,100% Always,"images\ RCHEEK_CFD_AM_233_236_N.png
",0,0,0,0,2,21,211,83,,,,,,,,,,,,2023-04-07_19h49.36.092,FaceAttractiveness,2022.2.5,144.1703285069056,
treatment,0% Never,100% Always,"images\ RCHEEK_CFD_BM_234_172_N.png
",0,0,0,0,2,22,212,87,,,,,,,,,,,,2023-04-07_19h49.36.092,FaceAttractiveness,2022.2.5,144.1703285069056,
treatment,0% Never,100% Always,images\ LCHEEK_CFD_LM_203_026_N.png,0,0,0,0,2,23,213,33,,,,,,,,,,,,2023-04-07_19h49.36.092,FaceAttractiveness,2022.2.5,144.1703285069056,
treatment,0% Never,100% Always,images\ RCHEEK_CFD_LF_224_176_N.png,0,0,0,0,2,24,214,88,,,,,,,,,,,,2023-04-07_19h49.36.092,FaceAttractiveness,2022.2.5,144.1703285069056,
treatment,0% Never,100% Always,images\ LIP_CFD_BM_213_134_N.png,0,0,0,0,2,25,215,48,,,,,,,,,,,,2023-04-07_19h49.36.092,FaceAttractiveness,2022.2.5,144.1703285069056,
treatment,0% Never,100% Always,images\ RCHEEK_006_M_F_N_A.png,0,0,0,0,2,26,216,76,,,,,,,,,,,,2023-04-07_19h49.36.092,FaceAttractiveness,2022.2.5,144.1703285069056,
treatment,0% Never,100% Always,images\ RCHEEK_035_M_F_N_A.png,0,0,0,0,2,27,217,77,,,,,,,,,,,,2023-04-07_19h49.36.092,FaceAttractiveness,2022.2.5,144.1703285069056,
treatment,0% Never,100% Always,"images\ LCHEEK_CFD_BM_234_172_N.png
",0,0,0,0,2,28,218,30,,,,,,,,,,,,2023-04-07_19h49.36.092,FaceAttractiveness,2022.2.5,144.1703285069056,
treatment,0% Never,100% Always,images\FOREHEAD_136_M_M_N_A.png,0,0,0,0,2,29,219,3,,,,,,,,,,,,2023-04-07_19h49.36.092,FaceAttractiveness,2022.2.5,144.1703285069056,
treatment,0% Never,100% Always,"images\ LCHEEK_136_M_M_N_A.png
",0,0,0,0,2,30,220,22,,,,,,,,,,,,2023-04-07_19h49.36.092,FaceAttractiveness,2022.2.5,144.1703285069056,
treatment,0% Never,100% Always,images\ LCHEEK_CFD_WM_212_097_N.png,0,0,0,0,2,31,221,37,,,,,,,,,,,,2023-04-07_19h49.36.092,FaceAttractiveness,2022.2.5,144.1703285069056,
treatment,0% Never,100% Always,images\FOREHEAD_CFD_AF_245_143_N.png,0,0,0,0,2,32,222,6,,,,,,,,,,,,2023-04-07_19h49.36.092,FaceAttractiveness,2022.2.5,144.1703285069056,
treatment,0% Never,100% Always,images\ RCHEEK_CFD_WF_250_167_N.png,0,0,0,0,2,33,223,93,,,,,,,,,,,,2023-04-07_19h49.36.092,FaceAttractiveness,2022.2.5,144.1703285069056,
treatment,0% Never,100% Always,images\FOREHEAD_CFD_BM_234_172_N.png,0,0,0,0,2,34,224,11,,,,,,,,,,,,2023-04-07_19h49.36.092,FaceAttractiveness,2022.2.5,144.1703285069056,
treatment,0% Never,100% Always,images\ LIP_CFD_AF_237_223_N.png,0,0,0,0,2,35,225,43,,,,,,,,,,,,2023-04-07_19h49.36.092,FaceAttractiveness,2022.2.5,144.1703285069056,
treatment,0% Never,100% Always,images\ RCHEEK_CFD_LM_201_057_N.png,0,0,0,0,2,36,226,89,,,,,,,,,,,,2023-04-07_19h49.36.092,FaceAttractiveness,2022.2.5,144.1703285069056,
treatment,0% Never,100% Always,"images\ NASALTIP_136_M_M_N_A.png
",0,0,0,0,2,37,227,60,,,,,,,,,,,,2023-04-07_19h49.36.092,FaceAttractiveness,2022.2.5,144.1703285069056,
treatment,0% Never,100% Always,images\FOREHEAD_CFD_BF_214_308_N.png,0,0,0,0,2,38,228,8,,,,,,,,,,,,2023-04-07_19h49.36.092,FaceAttractiveness,2022.2.5,144.1703285069056,
treatment,0% Never,100% Always,images\FOREHEAD_CFD_LF_224_176_N.png,0,0,0,0,2,39,229,12,,,,,,,,,,,,2023-04-07_19h49.36.092,FaceAttractiveness,2022.2.5,144.1703285069056,
treatment,0% Never,100% Always,images\ LIP_CFD_LM_203_026_N.png,0,0,0,0,2,40,230,52,,,,,,,,,,,,2023-04-07_19h49.36.092,FaceAttractiveness,2022.2.5,144.1703285069056,
treatment,0% Never,100% Always,images\ NASALTIP_CFD_AF_237_223_N.png,0,0,0,0,2,41,231,62,,,,,,,,,,,,2023-04-07_19h49.36.092,FaceAttractiveness,2022.2.5,144.1703285069056,
treatment,0% Never,100% Always,images\ RCHEEK_CFD_AF_231_357_N.png,0,0,0,0,2,42,232,80,,,,,,,,,,,,2023-04-07_19h49.36.092,FaceAttractiveness,2022.2.5,144.1703285069056,
treatment,0% Never,100% Always,images\FOREHEAD_CFD_WF_002_004_N.png,0,0,0,0,2,43,233,15,,,,,,,,,,,,2023-04-07_19h49.36.092,FaceAttractiveness,2022.2.5,144.1703285069056,
treatment,0% Never,100% Always,images\ RCHEEK_CFD_WM_212_097_N.png,0,0,0,0,2,44,234,94,,,,,,,,,,,,2023-04-07_19h49.36.092,FaceAttractiveness,2022.2.5,144.1703285069056,
treatment,0% Never,100% Always,images\ NASALTIP_CFD_BF_214_308_N.png,0,0,0,0,2,45,235,65,,,,,,,,,,,,2023-04-07_19h49.36.092,FaceAttractiveness,2022.2.5,144.1703285069056,
treatment,0% Never,100% Always,images\ LCHEEK_CFD_WF_200_099_N.png,0,0,0,0,2,46,236,35,,,,,,,,,,,,2023-04-07_19h49.36.092,FaceAttractiveness,2022.2.5,144.1703285069056,
treatment,0% Never,100% Always,images\FOREHEAD_CFD_AF_237_223_N.png,0,0,0,0,2,47,237,5,,,,,,,,,,,,2023-04-07_19h49.36.092,FaceAttractiveness,2022.2.5,144.1703285069056,
treatment,0% Never,100% Always,images\FOREHEAD_CFD_BM_213_134_N.png,0,0,0,0,2,48,238,10,,,,,,,,,,,,2023-04-07_19h49.36.092,FaceAttractiveness,2022.2.5,144.1703285069056,
treatment,0% Never,100% Always,images\ LCHEEK_CFD_AF_237_223_N.png,0,0,0,0,2,49,239,24,,,,,,,,,,,,2023-04-07_19h49.36.092,FaceAttractiveness,2022.2.5,144.1703285069056,
treatment,0% Never,100% Always,images\FOREHEAD_CFD_LM_203_026_N.png,0,0,0,0,2,50,240,14,,,,,,,,,,,,2023-04-07_19h49.36.092,FaceAttractiveness,2022.2.5,144.1703285069056,
treatment,0% Never,100% Always,images\ LIP_CFD_BF_214_308_N.png,0,0,0,0,2,51,241,46,,,,,,,,,,,,2023-04-07_19h49.36.092,FaceAttractiveness,2022.2.5,144.1703285069056,
treatment,0% Never,100% Always,images\ LCHEEK_087_M_M_N_A.png,0,0,0,0,2,52,242,21,,,,,,,,,,,,2023-04-07_19h49.36.092,FaceAttractiveness,2022.2.5,144.1703285069056,
treatment,0% Never,100% Always,images\ NASALTIP_CFD_WF_250_167_N.png,0,0,0,0,2,53,243,74,,,,,,,,,,,,2023-04-07_19h49.36.092,FaceAttractiveness,2022.2.5,144.1703285069056,
treatment,0% Never,100% Always,"images\ RCHEEK_136_M_M_N_A.png
",0,0,0,0,2,54,244,79,,,,,,,,,,,,2023-04-07_19h49.36.092,FaceAttractiveness,2022.2.5,144.1703285069056,
treatment,0% Never,100% Always,images\FOREHEAD_035_M_F_N_A.png,0,0,0,0,2,55,245,1,,,,,,,,,,,,2023-04-07_19h49.36.092,FaceAttractiveness,2022.2.5,144.1703285069056,
treatment,0% Never,100% Always,images\ LCHEEK_035_M_F_N_A.png,0,0,0,0,2,56,246,20,,,,,,,,,,,,2023-04-07_19h49.36.092,FaceAttractiveness,2022.2.5,144.1703285069056,
treatment,0% Never,100% Always,"images\ LIP_CFD_AM_233_236_N.png
",0,0,0,0,2,57,247,45,,,,,,,,,,,,2023-04-07_19h49.36.092,FaceAttractiveness,2022.2.5,144.1703285069056,
treatment,0% Never,100% Always,"images\ LCHEEK_CFD_WF_002_004_N.png
",0,0,0,0,2,58,248,34,,,,,,,,,,,,2023-04-07_19h49.36.092,FaceAttractiveness,2022.2.5,144.1703285069056,
treatment,0% Never,100% Always,"images\ LIP_136_M_M_N_A.png
",0,0,0,0,2,59,249,41,,,,,,,,,,,,2023-04-07_19h49.36.092,FaceAttractiveness,2022.2.5,144.1703285069056,
treatment,0% Never,100% Always,images\ RCHEEK_CFD_AF_237_223_N.png,0,0,0,0,2,60,250,81,,,,,,,,,,,,2023-04-07_19h49.36.092,FaceAttractiveness,2022.2.5,144.1703285069056,
treatment,0% Never,100% Always,images\FOREHEAD_087_M_M_N_A.png,0,0,0,0,2,61,251,2,,,,,,,,,,,,2023-04-07_19h49.36.092,FaceAttractiveness,2022.2.5,144.1703285069056,
treatment,0% Never,100% Always,"images\ LIP_CFD_WF_002_004_N.png
",0,0,0,0,2,62,252,53,,,,,,,,,,,,2023-04-07_19h49.36.092,FaceAttractiveness,2022.2.5,144.1703285069056,
treatment,0% Never,100% Always,images\FOREHEAD_CFD_LM_201_057_N.png,0,0,0,0,2,63,253,13,,,,,,,,,,,,2023-04-07_19h49.36.092,FaceAttractiveness,2022.2.5,144.1703285069056,
treatment,0% Never,100% Always,images\ LCHEEK_CFD_AF_245_143_N.png,0,0,0,0,2,64,254,25,,,,,,,,,,,,2023-04-07_19h49.36.092,FaceAttractiveness,2022.2.5,144.1703285069056,
treatment,0% Never,100% Always,images\FOREHEAD_CFD_AM_233_236_N.png,0,0,0,0,2,65,255,7,,,,,,,,,,,,2023-04-07_19h49.36.092,FaceAttractiveness,2022.2.5,144.1703285069056,
treatment,0% Never,100% Always,images\FOREHEAD_CFD_WF_200_099_N.png,0,0,0,0,2,66,256,16,,,,,,,,,,,,2023-04-07_19h49.36.092,FaceAttractiveness,2022.2.5,144.1703285069056,
treatment,0% Never,100% Always,images\ LCHEEK_CFD_BF_214_308_N.png,0,0,0,0,2,67,257,27,,,,,,,,,,,,2023-04-07_19h49.36.092,FaceAttractiveness,2022.2.5,144.1703285069056,
treatment,0% Never,100% Always,images\ LIP_CFD_WF_200_099_N.png,0,0,0,0,2,68,258,54,,,,,,,,,,,,2023-04-07_19h49.36.092,FaceAttractiveness,2022.2.5,144.1703285069056,
treatment,0% Never,100% Always,images\ NASALTIP_CFD_WF_200_099_N.png,0,0,0,0,2,69,259,73,,,,,,,,,,,,2023-04-07_19h49.36.092,FaceAttractiveness,2022.2.5,144.1703285069056,
treatment,0% Never,100% Always,images\ LIP_CFD_AF_231_357_N.png,0,0,0,0,2,70,260,42,,,,,,,,,,,,2023-04-07_19h49.36.092,FaceAttractiveness,2022.2.5,144.1703285069056,
treatment,0% Never,100% Always,images\FOREHEAD_CFD_WF_250_167_N.png,0,0,0,0,2,71,261,17,,,,,,,,,,,,2023-04-07_19h49.36.092,FaceAttractiveness,2022.2.5,144.1703285069056,
treatment,0% Never,100% Always,images\ RCHEEK_CFD_AF_245_143_N.png,0,0,0,0,2,72,262,82,,,,,,,,,,,,2023-04-07_19h49.36.092,FaceAttractiveness,2022.2.5,144.1703285069056,
treatment,0% Never,100% Always,images\FOREHEAD_006_M_F_N_A.png,0,0,0,0,2,73,263,0,,,,,,,,,,,,2023-04-07_19h49.36.092,FaceAttractiveness,2022.2.5,144.1703285069056,
treatment,0% Never,100% Always,images\ LIP_CFD_WF_250_167_N.png,0,0,0,0,2,74,264,55,,,,,,,,,,,,2023-04-07_19h49.36.092,FaceAttractiveness,2022.2.5,144.1703285069056,
treatment,0% Never,100% Always,"images\ LCHEEK_CFD_AM_233_236_N.png
",0,0,0,0,2,75,265,26,,,,,,,,,,,,2023-04-07_19h49.36.092,FaceAttractiveness,2022.2.5,144.1703285069056,
treatment,0% Never,100% Always,"images\ RCHEEK_CFD_WF_002_004_N.png
",0,0,0,0,2,76,266,91,,,,,,,,,,,,2023-04-07_19h49.36.092,FaceAttractiveness,2022.2.5,144.1703285069056,
treatment,0% Never,100% Always,images\ LIP_CFD_WM_212_097_N.png,0,0,0,0,2,77,267,56,,,,,,,,,,,,2023-04-07_19h49.36.092,FaceAttractiveness,2022.2.5,144.1703285069056,
treatment,0% Never,100% Always,images\ LCHEEK_CFD_LM_201_057_N.png,0,0,0,0,2,78,268,32,,,,,,,,,,,,2023-04-07_19h49.36.092,FaceAttractiveness,2022.2.5,144.1703285069056,
treatment,0% Never,100% Always,images\FOREHEAD_CFD_WM_212_097_N.png,0,0,0,0,2,79,269,18,,,,,,,,,,,,2023-04-07_19h49.36.092,FaceAttractiveness,2022.2.5,144.1703285069056,
treatment,0% Never,100% Always,images\ RCHEEK_CFD_WF_200_099_N.png,0,0,0,0,2,80,270,92,,,,,,,,,,,,2023-04-07_19h49.36.092,FaceAttractiveness,2022.2.5,144.1703285069056,
treatment,0% Never,100% Always,images\ NASALTIP_CFD_AF_245_143_N.png,0,0,0,0,2,81,271,63,,,,,,,,,,,,2023-04-07_19h49.36.092,FaceAttractiveness,2022.2.5,144.1703285069056,
treatment,0% Never,100% Always,images\ LIP_CFD_LM_201_057_N.png,0,0,0,0,2,82,272,51,,,,,,,,,,,,2023-04-07_19h49.36.092,FaceAttractiveness,2022.2.5,144.1703285069056,
treatment,0% Never,100% Always,"images\ NASALTIP_CFD_BM_234_172_N.png
",0,0,0,0,2,83,273,68,,,,,,,,,,,,2023-04-07_19h49.36.092,FaceAttractiveness,2022.2.5,144.1703285069056,
treatment,0% Never,100% Always,"images\ LIP_CFD_BM_234_172_N.png
",0,0,0,0,2,84,274,49,,,,,,,,,,,,2023-04-07_19h49.36.092,FaceAttractiveness,2022.2.5,144.1703285069056,
treatment,0% Never,100% Always,images\ LIP_035_M_F_N_A.png,0,0,0,0,2,85,275,39,,,,,,,,,,,,2023-04-07_19h49.36.092,FaceAttractiveness,2022.2.5,144.1703285069056,
treatment,0% Never,100% Always,images\ LIP_087_M_M_N_A.png,0,0,0,0,2,86,276,40,,,,,,,,,,,,2023-04-07_19h49.36.092,FaceAttractiveness,2022.2.5,144.1703285069056,
treatment,0% Never,100% Always,images\ RCHEEK_CFD_BF_224_002_N.png,0,0,0,0,2,87,277,85,,,,,,,,,,,,2023-04-07_19h49.36.092,FaceAttractiveness,2022.2.5,144.1703285069056,
treatment,0% Never,100% Always,images\ RCHEEK_087_M_M_N_A.png,0,0,0,0,2,88,278,78,,,,,,,,,,,,2023-04-07_19h49.36.092,FaceAttractiveness,2022.2.5,144.1703285069056,
treatment,0% Never,100% Always,images\ NASALTIP_CFD_AF_231_357_N.png,0,0,0,0,2,89,279,61,,,,,,,,,,,,2023-04-07_19h49.36.092,FaceAttractiveness,2022.2.5,144.1703285069056,
treatment,0% Never,100% Always,images\ NASALTIP_006_M_F_N_A.png,0,0,0,0,2,90,280,57,,,,,,,,,,,,2023-04-07_19h49.36.092,FaceAttractiveness,2022.2.5,144.1703285069056,
treatment,0% Never,100% Always,images\ RCHEEK_CFD_BM_213_134_N.png,0,0,0,0,2,91,281,86,,,,,,,,,,,,2023-04-07_19h49.36.092,FaceAttractiveness,2022.2.5,144.1703285069056,
treatment,0% Never,100% Always,images\ LIP_006_M_F_N_A.png,0,0,0,0,2,92,282,38,,,,,,,,,,,,2023-04-07_19h49.36.092,FaceAttractiveness,2022.2.5,144.1703285069056,
treatment,0% Never,100% Always,images\ RCHEEK_CFD_LM_203_026_N.png,0,0,0,0,2,93,283,90,,,,,,,,,,,,2023-04-07_19h49.36.092,FaceAttractiveness,2022.2.5,144.1703285069056,
treatment,0% Never,100% Always,images\ LIP_CFD_BF_224_002_N.png,0,0,0,0,2,94,284,47,,,,,,,,,,,,2023-04-07_19h49.36.092,FaceAttractiveness,2022.2.5,144.1703285069056,
treatment,0% Never,100% Always,"images\ LCHEEK_CFD_WF_002_004_N.png
",0,0,0,0,3,0,285,34,,,,,,,,,,,,2023-04-07_19h49.36.092,FaceAttractiveness,2022.2.5,144.1703285069056,
treatment,0% Never,100% Always,"images\ LCHEEK_CFD_BM_234_172_N.png
",0,0,0,0,3,1,286,30,,,,,,,,,,,,2023-04-07_19h49.36.092,FaceAttractiveness,2022.2.5,144.1703285069056,
treatment,0% Never,100% Always,images\ LIP_CFD_WM_212_097_N.png,0,0,0,0,3,2,287,56,,,,,,,,,,,,2023-04-07_19h49.36.092,FaceAttractiveness,2022.2.5,144.1703285069056,
treatment,0% Never,100% Always,images\ RCHEEK_CFD_WF_200_099_N.png,0,0,0,0,3,3,288,92,,,,,,,,,,,,2023-04-07_19h49.36.092,FaceAttractiveness,2022.2.5,144.1703285069056,
treatment,0% Never,100% Always,images\ LIP_CFD_AF_245_143_N.png,0,0,0,0,3,4,289,44,,,,,,,,,,,,2023-04-07_19h49.36.092,FaceAttractiveness,2022.2.5,144.1703285069056,
treatment,0% Never,100% Always,images\FOREHEAD_CFD_BM_213_134_N.png,0,0,0,0,3,5,290,10,,,,,,,,,,,,2023-04-07_19h49.36.092,FaceAttractiveness,2022.2.5,144.1703285069056,
treatment,0% Never,100% Always,images\ LCHEEK_087_M_M_N_A.png,0,0,0,0,3,6,291,21,,,,,,,,,,,,2023-04-07_19h49.36.092,FaceAttractiveness,2022.2.5,144.1703285069056,
treatment,0% Never,100% Always,images\ NASALTIP_CFD_LF_224_176_N.png,0,0,0,0,3,7,292,69,,,,,,,,,,,,2023-04-07_19h49.36.092,FaceAttractiveness,2022.2.5,144.1703285069056,
treatment,0% Never,100% Always,images\ LCHEEK_CFD_BF_214_308_N.png,0,0,0,0,3,8,293,27,,,,,,,,,,,,2023-04-07_19h49.36.092,FaceAttractiveness,2022.2.5,144.1703285069056,
treatment,0% Never,100% Always,"images\ LIP_136_M_M_N_A.png
",0,0,0,0,3,9,294,41,,,,,,,,,,,,2023-04-07_19h49.36.092,FaceAttractiveness,2022.2.5,144.1703285069056,
treatment,0% Never,100% Always,images\ RCHEEK_CFD_AF_231_357_N.png,0,0,0,0,3,10,295,80,,,,,,,,,,,,2023-04-07_19h49.36.092,FaceAttractiveness,2022.2.5,144.1703285069056,
treatment,0% Never,100% Always,images\ LIP_CFD_WF_250_167_N.png,0,0,0,0,3,11,296,55,,,,,,,,,,,,2023-04-07_19h49.36.092,FaceAttractiveness,2022.2.5,144.1703285069056,
treatment,0% Never,100% Always,images\ NASALTIP_CFD_AF_245_143_N.png,0,0,0,0,3,12,297,63,,,,,,,,,,,,2023-04-07_19h49.36.092,FaceAttractiveness,2022.2.5,144.1703285069056,
treatment,0% Never,100% Always,images\FOREHEAD_CFD_AF_237_223_N.png,0,0,0,0,3,13,298,5,,,,,,,,,,,,2023-04-07_19h49.36.092,FaceAttractiveness,2022.2.5,144.1703285069056,
treatment,0% Never,100% Always,"images\ RCHEEK_CFD_AM_233_236_N.png
",0,0,0,0,3,14,299,83,,,,,,,,,,,,2023-04-07_19h49.36.092,FaceAttractiveness,2022.2.5,144.1703285069056,
treatment,0% Never,100% Always,images\FOREHEAD_CFD_WF_200_099_N.png,0,0,0,0,3,15,300,16,,,,,,,,,,,,2023-04-07_19h49.36.092,FaceAttractiveness,2022.2.5,144.1703285069056,
treatment,0% Never,100% Always,images\ LIP_CFD_BF_224_002_N.png,0,0,0,0,3,16,301,47,,,,,,,,,,,,2023-04-07_19h49.36.092,FaceAttractiveness,2022.2.5,144.1703285069056,
treatment,0% Never,100% Always,images\ RCHEEK_CFD_WF_250_167_N.png,0,0,0,0,3,17,302,93,,,,,,,,,,,,2023-04-07_19h49.36.092,FaceAttractiveness,2022.2.5,144.1703285069056,
treatment,0% Never,100% Always,images\ RCHEEK_CFD_LM_203_026_N.png,0,0,0,0,3,18,303,90,,,,,,,,,,,,2023-04-07_19h49.36.092,FaceAttractiveness,2022.2.5,144.1703285069056,
treatment,0% Never,100% Always,images\ RCHEEK_CFD_AF_245_143_N.png,0,0,0,0,3,19,304,82,,,,,,,,,,,,2023-04-07_19h49.36.092,FaceAttractiveness,2022.2.5,144.1703285069056,
treatment,0% Never,100% Always,images\ LIP_CFD_LM_203_026_N.png,0,0,0,0,3,20,305,52,,,,,,,,,,,,2023-04-07_19h49.36.092,FaceAttractiveness,2022.2.5,144.1703285069056,
treatment,0% Never,100% Always,"images\ NASALTIP_CFD_AM_233_236_N.png
",0,0,0,0,3,21,306,64,,,,,,,,,,,,2023-04-07_19h49.36.092,FaceAttractiveness,2022.2.5,144.1703285069056,
treatment,0% Never,100% Always,"images\ NASALTIP_136_M_M_N_A.png
",0,0,0,0,3,22,307,60,,,,,,,,,,,,2023-04-07_19h49.36.092,FaceAttractiveness,2022.2.5,144.1703285069056,
treatment,0% Never,100% Always,images\ RCHEEK_006_M_F_N_A.png,0,0,0,0,3,23,308,76,,,,,,,,,,,,2023-04-07_19h49.36.092,FaceAttractiveness,2022.2.5,144.1703285069056,
treatment,0% Never,100% Always,images\FOREHEAD_CFD_WM_212_097_N.png,0,0,0,0,3,24,309,18,,,,,,,,,,,,2023-04-07_19h49.36.092,FaceAttractiveness,2022.2.5,144.1703285069056,
treatment,0% Never,100% Always,images\FOREHEAD_087_M_M_N_A.png,0,0,0,0,3,25,310,2,,,,,,,,,,,,2023-04-07_19h49.36.092,FaceAttractiveness,2022.2.5,144.1703285069056,
treatment,0% Never,100% Always,images\FOREHEAD_CFD_AM_233_236_N.png,0,0,0,0,3,26,311,7,,,,,,,,,,,,2023-04-07_19h49.36.092,FaceAttractiveness,2022.2.5,144.1703285069056,
treatment,0% Never,100% Always,images\FOREHEAD_136_M_M_N_A.png,0,0,0,0,3,27,312,3,,,,,,,,,,,,2023-04-07_19h49.36.092,FaceAttractiveness,2022.2.5,144.1703285069056,
treatment,0% Never,100% Always,images\ LCHEEK_CFD_WM_212_097_N.png,0,0,0,0,3,28,313,37,,,,,,,,,,,,2023-04-07_19h49.36.092,FaceAttractiveness,2022.2.5,144.1703285069056,
treatment,0% Never,100% Always,images\ RCHEEK_CFD_BF_224_002_N.png,0,0,0,0,3,29,314,85,,,,,,,,,,,,2023-04-07_19h49.36.092,FaceAttractiveness,2022.2.5,144.1703285069056,
treatment,0% Never,100% Always,images\ NASALTIP_CFD_AF_237_223_N.png,0,0,0,0,3,30,315,62,,,,,,,,,,,,2023-04-07_19h49.36.092,FaceAttractiveness,2022.2.5,144.1703285069056,
treatment,0% Never,100% Always,images\ NASALTIP_035_M_F_N_A.png,0,0,0,0,3,31,316,58,,,,,,,,,,,,2023-04-07_19h49.36.092,FaceAttractiveness,2022.2.5,144.1703285069056,
treatment,0% Never,100% Always,images\ LCHEEK_035_M_F_N_A.png,0,0,0,0,3,32,317,20,,,,,,,,,,,,2023-04-07_19h49.36.092,FaceAttractiveness,2022.2.5,144.1703285069056,
treatment,0% Never,100% Always,images\ RCHEEK_CFD_BF_214_308_N.png,0,0,0,0,3,33,318,84,,,,,,,,,,,,2023-04-07_19h49.36.092,FaceAttractiveness,2022.2.5,144.1703285069056,
treatment,0% Never,100% Always,images\FOREHEAD_CFD_AF_231_357_N.png,0,0,0,0,3,34,319,4,,,,,,,,,,,,2023-04-07_19h49.36.092,FaceAttractiveness,2022.2.5,144.1703285069056,
treatment,0% Never,100% Always,images\FOREHEAD_CFD_LF_224_176_N.png,0,0,0,0,3,35,320,12,,,,,,,,,,,,2023-04-07_19h49.36.092,FaceAttractiveness,2022.2.5,144.1703285069056,
treatment,0% Never,100% Always,images\ NASALTIP_CFD_AF_231_357_N.png,0,0,0,0,3,36,321,61,,,,,,,,,,,,2023-04-07_19h49.36.092,FaceAttractiveness,2022.2.5,144.1703285069056,
treatment,0% Never,100% Always,images\ LCHEEK_CFD_AF_245_143_N.png,0,0,0,0,3,37,322,25,,,,,,,,,,,,2023-04-07_19h49.36.092,FaceAttractiveness,2022.2.5,144.1703285069056,
treatment,0% Never,100% Always,"images\ LIP_CFD_WF_002_004_N.png
",0,0,0,0,3,38,323,53,,,,,,,,,,,,2023-04-07_19h49.36.092,FaceAttractiveness,2022.2.5,144.1703285069056,
treatment,0% Never,100% Always,images\ RCHEEK_087_M_M_N_A.png,0,0,0,0,3,39,324,78,,,,,,,,,,,,2023-04-07_19h49.36.092,FaceAttractiveness,2022.2.5,144.1703285069056,
treatment,0% Never,100% Always,images\ NASALTIP_CFD_LM_203_026_N.png,0,0,0,0,3,40,325,71,,,,,,,,,,,,2023-04-07_19h49.36.092,FaceAttractiveness,2022.2.5,144.1703285069056,
treatment,0% Never,100% Always,images\ NASALTIP_CFD_WF_200_099_N.png,0,0,0,0,3,41,326,73,,,,,,,,,,,,2023-04-07_19h49.36.092,FaceAttractiveness,2022.2.5,144.1703285069056,
treatment,0% Never,100% Always,images\ NASALTIP_CFD_BM_213_134_N.png,0,0,0,0,3,42,327,67,,,,,,,,,,,,2023-04-07_19h49.36.092,FaceAttractiveness,2022.2.5,144.1703285069056,
treatment,0% Never,100% Always,images\ LIP_CFD_BM_213_134_N.png,0,0,0,0,3,43,328,48,,,,,,,,,,,,2023-04-07_19h49.36.092,FaceAttractiveness,2022.2.5,144.1703285069056,
treatment,0% Never,100% Always,images\ LIP_CFD_AF_237_223_N.png,0,0,0,0,3,44,329,43,,,,,,,,,,,,2023-04-07_19h49.36.092,FaceAttractiveness,2022.2.5,144.1703285069056,
treatment,0% Never,100% Always,"images\ NASALTIP_CFD_WF_002_004_N.png
",0,0,0,0,3,45,330,72,,,,,,,,,,,,2023-04-07_19h49.36.092,FaceAttractiveness,2022.2.5,144.1703285069056,
treatment,0% Never,100% Always,"images\ NASALTIP_CFD_BM_234_172_N.png
",0,0,0,0,3,46,331,68,,,,,,,,,,,,2023-04-07_19h49.36.092,FaceAttractiveness,2022.2.5,144.1703285069056,
treatment,0% Never,100% Always,"images\ LCHEEK_CFD_AM_233_236_N.png
",0,0,0,0,3,47,332,26,,,,,,,,,,,,2023-04-07_19h49.36.092,FaceAttractiveness,2022.2.5,144.1703285069056,
treatment,0% Never,100% Always,images\ LCHEEK_CFD_BM_213_134_N.png,0,0,0,0,3,48,333,29,,,,,,,,,,,,2023-04-07_19h49.36.092,FaceAttractiveness,2022.2.5,144.1703285069056,
treatment,0% Never,100% Always,images\ NASALTIP_087_M_M_N_A.png,0,0,0,0,3,49,334,59,,,,,,,,,,,,2023-04-07_19h49.36.092,FaceAttractiveness,2022.2.5,144.1703285069056,
treatment,0% Never,100% Always,images\ LCHEEK_CFD_LF_224_176_N.png,0,0,0,0,3,50,335,31,,,,,,,,,,,,2023-04-07_19h49.36.092,FaceAttractiveness,2022.2.5,144.1703285069056,
treatment,0% Never,100% Always,images\ RCHEEK_035_M_F_N_A.png,0,0,0,0,3,51,336,77,,,,,,,,,,,,2023-04-07_19h49.36.092,FaceAttractiveness,2022.2.5,144.1703285069056,
treatment,0% Never,100% Always,images\ LIP_CFD_WF_200_099_N.png,0,0,0,0,3,52,337,54,,,,,,,,,,,,2023-04-07_19h49.36.092,FaceAttractiveness,2022.2.5,144.1703285069056,
treatment,0% Never,100% Always,images\ LCHEEK_006_M_F_N_A.png,0,0,0,0,3,53,338,19,,,,,,,,,,,,2023-04-07_19h49.36.092,FaceAttractiveness,2022.2.5,144.1703285069056,
treatment,0% Never,100% Always,images\FOREHEAD_CFD_WF_002_004_N.png,0,0,0,0,3,54,339,15,,,,,,,,,,,,2023-04-07_19h49.36.092,FaceAttractiveness,2022.2.5,144.1703285069056,
treatment,0% Never,100% Always,images\ NASALTIP_CFD_LM_201_057_N.png,0,0,0,0,3,55,340,70,,,,,,,,,,,,2023-04-07_19h49.36.092,FaceAttractiveness,2022.2.5,144.1703285069056,
treatment,0% Never,100% Always,images\FOREHEAD_CFD_BF_214_308_N.png,0,0,0,0,3,56,341,8,,,,,,,,,,,,2023-04-07_19h49.36.092,FaceAttractiveness,2022.2.5,144.1703285069056,
treatment,0% Never,100% Always,images\FOREHEAD_CFD_LM_203_026_N.png,0,0,0,0,3,57,342,14,,,,,,,,,,,,2023-04-07_19h49.36.092,FaceAttractiveness,2022.2.5,144.1703285069056,
treatment,0% Never,100% Always,images\ RCHEEK_CFD_LF_224_176_N.png,0,0,0,0,3,58,343,88,,,,,,,,,,,,2023-04-07_19h49.36.092,FaceAttractiveness,2022.2.5,144.1703285069056,
treatment,0% Never,100% Always,images\ NASALTIP_CFD_BF_214_308_N.png,0,0,0,0,3,59,344,65,,,,,,,,,,,,2023-04-07_19h49.36.092,FaceAttractiveness,2022.2.5,144.1703285069056,
treatment,0% Never,100% Always,images\ NASALTIP_006_M_F_N_A.png,0,0,0,0,3,60,345,57,,,,,,,,,,,,2023-04-07_19h49.36.092,FaceAttractiveness,2022.2.5,144.1703285069056,
treatment,0% Never,100% Always,images\ LIP_035_M_F_N_A.png,0,0,0,0,3,61,346,39,,,,,,,,,,,,2023-04-07_19h49.36.092,FaceAttractiveness,2022.2.5,144.1703285069056,
treatment,0% Never,100% Always,images\FOREHEAD_CFD_BM_234_172_N.png,0,0,0,0,3,62,347,11,,,,,,,,,,,,2023-04-07_19h49.36.092,FaceAttractiveness,2022.2.5,144.1703285069056,
treatment,0% Never,100% Always,"images\ RCHEEK_CFD_BM_234_172_N.png
",0,0,0,0,3,63,348,87,,,,,,,,,,,,2023-04-07_19h49.36.092,FaceAttractiveness,2022.2.5,144.1703285069056,
treatment,0% Never,100% Always,images\ RCHEEK_CFD_LM_201_057_N.png,0,0,0,0,3,64,349,89,,,,,,,,,,,,2023-04-07_19h49.36.092,FaceAttractiveness,2022.2.5,144.1703285069056,
treatment,0% Never,100% Always,"images\ RCHEEK_136_M_M_N_A.png
",0,0,0,0,3,65,350,79,,,,,,,,,,,,2023-04-07_19h49.36.092,FaceAttractiveness,2022.2.5,144.1703285069056,
treatment,0% Never,100% Always,"images\ LIP_CFD_AM_233_236_N.png
",0,0,0,0,3,66,351,45,,,,,,,,,,,,2023-04-07_19h49.36.092,FaceAttractiveness,2022.2.5,144.1703285069056,
treatment,0% Never,100% Always,images\ LIP_CFD_AF_231_357_N.png,0,0,0,0,3,67,352,42,,,,,,,,,,,,2023-04-07_19h49.36.092,FaceAttractiveness,2022.2.5,144.1703285069056,
treatment,0% Never,100% Always,"images\ LIP_CFD_BM_234_172_N.png
",0,0,0,0,3,68,353,49,,,,,,,,,,,,2023-04-07_19h49.36.092,FaceAttractiveness,2022.2.5,144.1703285069056,
treatment,0% Never,100% Always,images\FOREHEAD_035_M_F_N_A.png,0,0,0,0,3,69,354,1,,,,,,,,,,,,2023-04-07_19h49.36.092,FaceAttractiveness,2022.2.5,144.1703285069056,
treatment,0% Never,100% Always,images\ RCHEEK_CFD_WM_212_097_N.png,0,0,0,0,3,70,355,94,,,,,,,,,,,,2023-04-07_19h49.36.092,FaceAttractiveness,2022.2.5,144.1703285069056,
treatment,0% Never,100% Always,images\ LCHEEK_CFD_LM_201_057_N.png,0,0,0,0,3,71,356,32,,,,,,,,,,,,2023-04-07_19h49.36.092,FaceAttractiveness,2022.2.5,144.1703285069056,
treatment,0% Never,100% Always,images\FOREHEAD_CFD_AF_245_143_N.png,0,0,0,0,3,72,357,6,,,,,,,,,,,,2023-04-07_19h49.36.092,FaceAttractiveness,2022.2.5,144.1703285069056,
treatment,0% Never,100% Always,images\FOREHEAD_CFD_LM_201_057_N.png,0,0,0,0,3,73,358,13,,,,,,,,,,,,2023-04-07_19h49.36.092,FaceAttractiveness,2022.2.5,144.1703285069056,
treatment,0% Never,100% Always,images\FOREHEAD_006_M_F_N_A.png,0,0,0,0,3,74,359,0,,,,,,,,,,,,2023-04-07_19h49.36.092,FaceAttractiveness,2022.2.5,144.1703285069056,
treatment,0% Never,100% Always,images\ NASALTIP_CFD_WF_250_167_N.png,0,0,0,0,3,75,360,74,,,,,,,,,,,,2023-04-07_19h49.36.092,FaceAttractiveness,2022.2.5,144.1703285069056,
treatment,0% Never,100% Always,images\FOREHEAD_CFD_BF_224_002_N.png,0,0,0,0,3,76,361,9,,,,,,,,,,,,2023-04-07_19h49.36.092,FaceAttractiveness,2022.2.5,144.1703285069056,
treatment,0% Never,100% Always,images\ LIP_087_M_M_N_A.png,0,0,0,0,3,77,362,40,,,,,,,,,,,,2023-04-07_19h49.36.092,FaceAttractiveness,2022.2.5,144.1703285069056,
treatment,0% Never,100% Always,images\ LCHEEK_CFD_AF_237_223_N.png,0,0,0,0,3,78,363,24,,,,,,,,,,,,2023-04-07_19h49.36.092,FaceAttractiveness,2022.2.5,144.1703285069056,
treatment,0% Never,100% Always,images\FOREHEAD_CFD_WF_250_167_N.png,0,0,0,0,3,79,364,17,,,,,,,,,,,,2023-04-07_19h49.36.092,FaceAttractiveness,2022.2.5,144.1703285069056,
treatment,0% Never,100% Always,images\ RCHEEK_CFD_BM_213_134_N.png,0,0,0,0,3,80,365,86,,,,,,,,,,,,2023-04-07_19h49.36.092,FaceAttractiveness,2022.2.5,144.1703285069056,
treatment,0% Never,100% Always,images\ NASALTIP_CFD_BF_224_002_N.png,0,0,0,0,3,81,366,66,,,,,,,,,,,,2023-04-07_19h49.36.092,FaceAttractiveness,2022.2.5,144.1703285069056,
treatment,0% Never,100% Always,images\ LIP_CFD_BF_214_308_N.png,0,0,0,0,3,82,367,46,,,,,,,,,,,,2023-04-07_19h49.36.092,FaceAttractiveness,2022.2.5,144.1703285069056,
treatment,0% Never,100% Always,images\ LCHEEK_CFD_LM_203_026_N.png,0,0,0,0,3,83,368,33,,,,,,,,,,,,2023-04-07_19h49.36.092,FaceAttractiveness,2022.2.5,144.1703285069056,
treatment,0% Never,100% Always,images\ LIP_CFD_LM_201_057_N.png,0,0,0,0,3,84,369,51,,,,,,,,,,,,2023-04-07_19h49.36.092,FaceAttractiveness,2022.2.5,144.1703285069056,
treatment,0% Never,100% Always,"images\ LCHEEK_136_M_M_N_A.png
",0,0,0,0,3,85,370,22,,,,,,,,,,,,2023-04-07_19h49.36.092,FaceAttractiveness,2022.2.5,144.1703285069056,
treatment,0% Never,100% Always,images\ LCHEEK_CFD_WF_200_099_N.png,0,0,0,0,3,86,371,35,,,,,,,,,,,,2023-04-07_19h49.36.092,FaceAttractiveness,2022.2.5,144.1703285069056,
treatment,0% Never,100% Always,images\ LCHEEK_CFD_AF_231_357_N.png,0,0,0,0,3,87,372,23,,,,,,,,,,,,2023-04-07_19h49.36.092,FaceAttractiveness,2022.2.5,144.1703285069056,
treatment,0% Never,100% Always,images\ LIP_006_M_F_N_A.png,0,0,0,0,3,88,373,38,,,,,,,,,,,,2023-04-07_19h49.36.092,FaceAttractiveness,2022.2.5,144.1703285069056,
treatment,0% Never,100% Always,images\ RCHEEK_CFD_AF_237_223_N.png,0,0,0,0,3,89,374,81,,,,,,,,,,,,2023-04-07_19h49.36.092,FaceAttractiveness,2022.2.5,144.1703285069056,
treatment,0% Never,100% Always,images\ LCHEEK_CFD_WF_250_167_N.png,0,0,0,0,3,90,375,36,,,,,,,,,,,,2023-04-07_19h49.36.092,FaceAttractiveness,2022.2.5,144.1703285069056,
treatment,0% Never,100% Always,images\ LIP_CFD_LF_224_176_N.png,0,0,0,0,3,91,376,50,,,,,,,,,,,,2023-04-07_19h49.36.092,FaceAttractiveness,2022.2.5,144.1703285069056,
treatment,0% Never,100% Always,"images\ RCHEEK_CFD_WF_002_004_N.png
",0,0,0,0,3,92,377,91,,,,,,,,,,,,2023-04-07_19h49.36.092,FaceAttractiveness,2022.2.5,144.1703285069056,
treatment,0% Never,100% Always,images\ LCHEEK_CFD_BF_224_002_N.png,0,0,0,0,3,93,378,28,,,,,,,,,,,,2023-04-07_19h49.36.092,FaceAttractiveness,2022.2.5,144.1703285069056,
treatment,0% Never,100% Always,images\ NASALTIP_CFD_WM_212_097_N.png,0,0,0,0,3,94,379,75,,,,,,,,,,,,2023-04-07_19h49.36.092,FaceAttractiveness,2022.2.5,144.1703285069056,
treatment,0% Never,100% Always,"images\ NASALTIP_136_M_M_N_A.png
",0,0,0,0,4,0,380,60,,,,,,,,,,,,2023-04-07_19h49.36.092,FaceAttractiveness,2022.2.5,144.1703285069056,
treatment,0% Never,100% Always,images\ NASALTIP_CFD_WM_212_097_N.png,0,0,0,0,4,1,381,75,,,,,,,,,,,,2023-04-07_19h49.36.092,FaceAttractiveness,2022.2.5,144.1703285069056,
treatment,0% Never,100% Always,images\ NASALTIP_006_M_F_N_A.png,0,0,0,0,4,2,382,57,,,,,,,,,,,,2023-04-07_19h49.36.092,FaceAttractiveness,2022.2.5,144.1703285069056,
treatment,0% Never,100% Always,images\ RCHEEK_CFD_BM_213_134_N.png,0,0,0,0,4,3,383,86,,,,,,,,,,,,2023-04-07_19h49.36.092,FaceAttractiveness,2022.2.5,144.1703285069056,
treatment,0% Never,100% Always,images\FOREHEAD_CFD_AF_245_143_N.png,0,0,0,0,4,4,384,6,,,,,,,,,,,,2023-04-07_19h49.36.092,FaceAttractiveness,2022.2.5,144.1703285069056,
treatment,0% Never,100% Always,"images\ NASALTIP_CFD_AM_233_236_N.png
",0,0,0,0,4,5,385,64,,,,,,,,,,,,2023-04-07_19h49.36.092,FaceAttractiveness,2022.2.5,144.1703285069056,
treatment,0% Never,100% Always,images\ RCHEEK_CFD_AF_231_357_N.png,0,0,0,0,4,6,386,80,,,,,,,,,,,,2023-04-07_19h49.36.092,FaceAttractiveness,2022.2.5,144.1703285069056,
treatment,0% Never,100% Always,images\FOREHEAD_CFD_WF_002_004_N.png,0,0,0,0,4,7,387,15,,,,,,,,,,,,2023-04-07_19h49.36.092,FaceAttractiveness,2022.2.5,144.1703285069056,
treatment,0% Never,100% Always,images\FOREHEAD_CFD_BF_214_308_N.png,0,0,0,0,4,8,388,8,,,,,,,,,,,,2023-04-07_19h49.36.092,FaceAttractiveness,2022.2.5,144.1703285069056,
treatment,0% Never,100% Always,images\ LCHEEK_035_M_F_N_A.png,0,0,0,0,4,9,389,20,,,,,,,,,,,,2023-04-07_19h49.36.092,FaceAttractiveness,2022.2.5,144.1703285069056,
treatment,0% Never,100% Always,images\ NASALTIP_CFD_BF_224_002_N.png,0,0,0,0,4,10,390,66,,,,,,,,,,,,2023-04-07_19h49.36.092,FaceAttractiveness,2022.2.5,144.1703285069056,
treatment,0% Never,100% Always,images\ LIP_CFD_AF_237_223_N.png,0,0,0,0,4,11,391,43,,,,,,,,,,,,2023-04-07_19h49.36.092,FaceAttractiveness,2022.2.5,144.1703285069056,
treatment,0% Never,100% Always,images\ LCHEEK_087_M_M_N_A.png,0,0,0,0,4,12,392,21,,,,,,,,,,,,2023-04-07_19h49.36.092,FaceAttractiveness,2022.2.5,144.1703285069056,
treatment,0% Never,100% Always,images\ LIP_CFD_BM_213_134_N.png,0,0,0,0,4,13,393,48,,,,,,,,,,,,2023-04-07_19h49.36.092,FaceAttractiveness,2022.2.5,144.1703285069056,
treatment,0% Never,100% Always,images\ LCHEEK_CFD_AF_231_357_N.png,0,0,0,0,4,14,394,23,,,,,,,,,,,,2023-04-07_19h49.36.092,FaceAttractiveness,2022.2.5,144.1703285069056,
treatment,0% Never,100% Always,images\ LIP_CFD_AF_231_357_N.png,0,0,0,0,4,15,395,42,,,,,,,,,,,,2023-04-07_19h49.36.092,FaceAttractiveness,2022.2.5,144.1703285069056,
treatment,0% Never,100% Always,"images\ LIP_136_M_M_N_A.png
",0,0,0,0,4,16,396,41,,,,,,,,,,,,2023-04-07_19h49.36.092,FaceAttractiveness,2022.2.5,144.1703285069056,
treatment,0% Never,100% Always,"images\ NASALTIP_CFD_BM_234_172_N.png
",0,0,0,0,4,17,397,68,,,,,,,,,,,,2023-04-07_19h49.36.092,FaceAttractiveness,2022.2.5,144.1703285069056,
treatment,0% Never,100% Always,"images\ LCHEEK_136_M_M_N_A.png
",0,0,0,0,4,18,398,22,,,,,,,,,,,,2023-04-07_19h49.36.092,FaceAttractiveness,2022.2.5,144.1703285069056,
treatment,0% Never,100% Always,images\ LCHEEK_CFD_BM_213_134_N.png,0,0,0,0,4,19,399,29,,,,,,,,,,,,2023-04-07_19h49.36.092,FaceAttractiveness,2022.2.5,144.1703285069056,
treatment,0% Never,100% Always,images\ NASALTIP_CFD_LF_224_176_N.png,0,0,0,0,4,20,400,69,,,,,,,,,,,,2023-04-07_19h49.36.092,FaceAttractiveness,2022.2.5,144.1703285069056,
treatment,0% Never,100% Always,images\ RCHEEK_087_M_M_N_A.png,0,0,0,0,4,21,401,78,,,,,,,,,,,,2023-04-07_19h49.36.092,FaceAttractiveness,2022.2.5,144.1703285069056,
treatment,0% Never,100% Always,"images\ RCHEEK_CFD_AM_233_236_N.png
",0,0,0,0,4,22,402,83,,,,,,,,,,,,2023-04-07_19h49.36.092,FaceAttractiveness,2022.2.5,144.1703285069056,
treatment,0% Never,100% Always,images\ LIP_006_M_F_N_A.png,0,0,0,0,4,23,403,38,,,,,,,,,,,,2023-04-07_19h49.36.092,FaceAttractiveness,2022.2.5,144.1703285069056,
treatment,0% Never,100% Always,images\ NASALTIP_CFD_AF_237_223_N.png,0,0,0,0,4,24,404,62,,,,,,,,,,,,2023-04-07_19h49.36.092,FaceAttractiveness,2022.2.5,144.1703285069056,
treatment,0% Never,100% Always,images\ NASALTIP_CFD_BF_214_308_N.png,0,0,0,0,4,25,405,65,,,,,,,,,,,,2023-04-07_19h49.36.092,FaceAttractiveness,2022.2.5,144.1703285069056,
treatment,0% Never,100% Always,images\ LCHEEK_CFD_WF_250_167_N.png,0,0,0,0,4,26,406,36,,,,,,,,,,,,2023-04-07_19h49.36.092,FaceAttractiveness,2022.2.5,144.1703285069056,
treatment,0% Never,100% Always,images\ RCHEEK_CFD_WF_200_099_N.png,0,0,0,0,4,27,407,92,,,,,,,,,,,,2023-04-07_19h49.36.092,FaceAttractiveness,2022.2.5,144.1703285069056,
treatment,0% Never,100% Always,images\FOREHEAD_CFD_AF_237_223_N.png,0,0,0,0,4,28,408,5,,,,,,,,,,,,2023-04-07_19h49.36.092,FaceAttractiveness,2022.2.5,144.1703285069056,
treatment,0% Never,100% Always,images\ RCHEEK_CFD_BF_224_002_N.png,0,0,0,0,4,29,409,85,,,,,,,,,,,,2023-04-07_19h49.36.092,FaceAttractiveness,2022.2.5,144.1703285069056,
treatment,0% Never,100% Always,images\ NASALTIP_CFD_AF_231_357_N.png,0,0,0,0,4,30,410,61,,,,,,,,,,,,2023-04-07_19h49.36.092,FaceAttractiveness,2022.2.5,144.1703285069056,
treatment,0% Never,100% Always,images\ LIP_CFD_BF_214_308_N.png,0,0,0,0,4,31,411,46,,,,,,,,,,,,2023-04-07_19h49.36.092,FaceAttractiveness,2022.2.5,144.1703285069056,
treatment,0% Never,100% Always,images\ RCHEEK_CFD_AF_237_223_N.png,0,0,0,0,4,32,412,81,,,,,,,,,,,,2023-04-07_19h49.36.092,FaceAttractiveness,2022.2.5,144.1703285069056,
treatment,0% Never,100% Always,"images\ RCHEEK_CFD_BM_234_172_N.png
",0,0,0,0,4,33,413,87,,,,,,,,,,,,2023-04-07_19h49.36.092,FaceAttractiveness,2022.2.5,144.1703285069056,
treatment,0% Never,100% Always,"images\ LCHEEK_CFD_AM_233_236_N.png
",0,0,0,0,4,34,414,26,,,,,,,,,,,,2023-04-07_19h49.36.092,FaceAttractiveness,2022.2.5,144.1703285069056,
treatment,0% Never,100% Always,images\ RCHEEK_CFD_LF_224_176_N.png,0,0,0,0,4,35,415,88,,,,,,,,,,,,2023-04-07_19h49.36.092,FaceAttractiveness,2022.2.5,144.1703285069056,
treatment,0% Never,100% Always,images\ LIP_CFD_LF_224_176_N.png,0,0,0,0,4,36,416,50,,,,,,,,,,,,2023-04-07_19h49.36.092,FaceAttractiveness,2022.2.5,144.1703285069056,
treatment,0% Never,100% Always,images\ LIP_CFD_AF_245_143_N.png,0,0,0,0,4,37,417,44,,,,,,,,,,,,2023-04-07_19h49.36.092,FaceAttractiveness,2022.2.5,144.1703285069056,
treatment,0% Never,100% Always,images\FOREHEAD_CFD_BM_213_134_N.png,0,0,0,0,4,38,418,10,,,,,,,,,,,,2023-04-07_19h49.36.092,FaceAttractiveness,2022.2.5,144.1703285069056,
treatment,0% Never,100% Always,images\ NASALTIP_CFD_AF_245_143_N.png,0,0,0,0,4,39,419,63,,,,,,,,,,,,2023-04-07_19h49.36.092,FaceAttractiveness,2022.2.5,144.1703285069056,
treatment,0% Never,100% Always,"images\ LIP_CFD_WF_002_004_N.png
",0,0,0,0,4,40,420,53,,,,,,,,,,,,2023-04-07_19h49.36.092,FaceAttractiveness,2022.2.5,144.1703285069056,
treatment,0% Never,100% Always,images\ RCHEEK_CFD_WF_250_167_N.png,0,0,0,0,4,41,421,93,,,,,,,,,,,,2023-04-07_19h49.36.092,FaceAttractiveness,2022.2.5,144.1703285069056,
treatment,0% Never,100% Always,"images\ RCHEEK_CFD_WF_002_004_N.png
",0,0,0,0,4,42,422,91,,,,,,,,,,,,2023-04-07_19h49.36.092,FaceAttractiveness,2022.2.5,144.1703285069056,
treatment,0% Never,100% Always,"images\ LIP_CFD_BM_234_172_N.png
",0,0,0,0,4,43,423,49,,,,,,,,,,,,2023-04-07_19h49.36.092,FaceAttractiveness,2022.2.5,144.1703285069056,
treatment,0% Never,100% Always,images\ RCHEEK_CFD_BF_214_308_N.png,0,0,0,0,4,44,424,84,,,,,,,,,,,,2023-04-07_19h49.36.092,FaceAttractiveness,2022.2.5,144.1703285069056,
treatment,0% Never,100% Always,images\ NASALTIP_087_M_M_N_A.png,0,0,0,0,4,45,425,59,,,,,,,,,,,,2023-04-07_19h49.36.092,FaceAttractiveness,2022.2.5,144.1703285069056,
treatment,0% Never,100% Always,images\ RCHEEK_006_M_F_N_A.png,0,0,0,0,4,46,426,76,,,,,,,,,,,,2023-04-07_19h49.36.092,FaceAttractiveness,2022.2.5,144.1703285069056,
treatment,0% Never,100% Always,images\FOREHEAD_CFD_AM_233_236_N.png,0,0,0,0,4,47,427,7,,,,,,,,,,,,2023-04-07_19h49.36.092,FaceAttractiveness,2022.2.5,144.1703285069056,
treatment,0% Never,100% Always,images\ LIP_CFD_WF_200_099_N.png,0,0,0,0,4,48,428,54,,,,,,,,,,,,2023-04-07_19h49.36.092,FaceAttractiveness,2022.2.5,144.1703285069056,
treatment,0% Never,100% Always,images\FOREHEAD_CFD_WM_212_097_N.png,0,0,0,0,4,49,429,18,,,,,,,,,,,,2023-04-07_19h49.36.092,FaceAttractiveness,2022.2.5,144.1703285069056,
treatment,0% Never,100% Always,images\ RCHEEK_CFD_AF_245_143_N.png,0,0,0,0,4,50,430,82,,,,,,,,,,,,2023-04-07_19h49.36.092,FaceAttractiveness,2022.2.5,144.1703285069056,
treatment,0% Never,100% Always,images\FOREHEAD_CFD_LM_201_057_N.png,0,0,0,0,4,51,431,13,,,,,,,,,,,,2023-04-07_19h49.36.092,FaceAttractiveness,2022.2.5,144.1703285069056,
treatment,0% Never,100% Always,images\ NASALTIP_CFD_WF_200_099_N.png,0,0,0,0,4,52,432,73,,,,,,,,,,,,2023-04-07_19h49.36.092,FaceAttractiveness,2022.2.5,144.1703285069056,
treatment,0% Never,100% Always,images\ LIP_087_M_M_N_A.png,0,0,0,0,4,53,433,40,,,,,,,,,,,,2023-04-07_19h49.36.092,FaceAttractiveness,2022.2.5,144.1703285069056,
treatment,0% Never,100% Always,images\ LCHEEK_CFD_LF_224_176_N.png,0,0,0,0,4,54,434,31,,,,,,,,,,,,2023-04-07_19h49.36.092,FaceAttractiveness,2022.2.5,144.1703285069056,
treatment,0% Never,100% Always,images\ LIP_CFD_WF_250_167_N.png,0,0,0,0,4,55,435,55,,,,,,,,,,,,2023-04-07_19h49.36.092,FaceAttractiveness,2022.2.5,144.1703285069056,
treatment,0% Never,100% Always,images\ LCHEEK_CFD_AF_245_143_N.png,0,0,0,0,4,56,436,25,,,,,,,,,,,,2023-04-07_19h49.36.092,FaceAttractiveness,2022.2.5,144.1703285069056,
treatment,0% Never,100% Always,images\ RCHEEK_CFD_LM_201_057_N.png,0,0,0,0,4,57,437,89,,,,,,,,,,,,2023-04-07_19h49.36.092,FaceAttractiveness,2022.2.5,144.1703285069056,
treatment,0% Never,100% Always,images\FOREHEAD_CFD_AF_231_357_N.png,0,0,0,0,4,58,438,4,,,,,,,,,,,,2023-04-07_19h49.36.092,FaceAttractiveness,2022.2.5,144.1703285069056,
treatment,0% Never,100% Always,images\FOREHEAD_087_M_M_N_A.png,0,0,0,0,4,59,439,2,,,,,,,,,,,,2023-04-07_19h49.36.092,FaceAttractiveness,2022.2.5,144.1703285069056,
treatment,0% Never,100% Always,images\FOREHEAD_006_M_F_N_A.png,0,0,0,0,4,60,440,0,,,,,,,,,,,,2023-04-07_19h49.36.092,FaceAttractiveness,2022.2.5,144.1703285069056,
treatment,0% Never,100% Always,images\ LCHEEK_CFD_BF_224_002_N.png,0,0,0,0,4,61,441,28,,,,,,,,,,,,2023-04-07_19h49.36.092,FaceAttractiveness,2022.2.5,144.1703285069056,
treatment,0% Never,100% Always,images\ NASALTIP_CFD_LM_201_057_N.png,0,0,0,0,4,62,442,70,,,,,,,,,,,,2023-04-07_19h49.36.092,FaceAttractiveness,2022.2.5,144.1703285069056,
treatment,0% Never,100% Always,images\FOREHEAD_CFD_WF_200_099_N.png,0,0,0,0,4,63,443,16,,,,,,,,,,,,2023-04-07_19h49.36.092,FaceAttractiveness,2022.2.5,144.1703285069056,
treatment,0% Never,100% Always,images\ NASALTIP_035_M_F_N_A.png,0,0,0,0,4,64,444,58,,,,,,,,,,,,2023-04-07_19h49.36.092,FaceAttractiveness,2022.2.5,144.1703285069056,
treatment,0% Never,100% Always,images\ NASALTIP_CFD_LM_203_026_N.png,0,0,0,0,4,65,445,71,,,,,,,,,,,,2023-04-07_19h49.36.092,FaceAttractiveness,2022.2.5,144.1703285069056,
treatment,0% Never,100% Always,images\FOREHEAD_CFD_WF_250_167_N.png,0,0,0,0,4,66,446,17,,,,,,,,,,,,2023-04-07_19h49.36.092,FaceAttractiveness,2022.2.5,144.1703285069056,
treatment,0% Never,100% Always,images\ LIP_035_M_F_N_A.png,0,0,0,0,4,67,447,39,,,,,,,,,,,,2023-04-07_19h49.36.092,FaceAttractiveness,2022.2.5,144.1703285069056,
treatment,0% Never,100% Always,images\ LCHEEK_006_M_F_N_A.png,0,0,0,0,4,68,448,19,,,,,,,,,,,,2023-04-07_19h49.36.092,FaceAttractiveness,2022.2.5,144.1703285069056,
treatment,0% Never,100% Always,"images\ NASALTIP_CFD_WF_002_004_N.png
",0,0,0,0,4,69,449,72,,,,,,,,,,,,2023-04-07_19h49.36.092,FaceAttractiveness,2022.2.5,144.1703285069056,
treatment,0% Never,100% Always,images\ LCHEEK_CFD_LM_201_057_N.png,0,0,0,0,4,70,450,32,,,,,,,,,,,,2023-04-07_19h49.36.092,FaceAttractiveness,2022.2.5,144.1703285069056,
treatment,0% Never,100% Always,"images\ LIP_CFD_AM_233_236_N.png
",0,0,0,0,4,71,451,45,,,,,,,,,,,,2023-04-07_19h49.36.092,FaceAttractiveness,2022.2.5,144.1703285069056,
treatment,0% Never,100% Always,images\ RCHEEK_035_M_F_N_A.png,0,0,0,0,4,72,452,77,,,,,,,,,,,,2023-04-07_19h49.36.092,FaceAttractiveness,2022.2.5,144.1703285069056,
treatment,0% Never,100% Always,images\FOREHEAD_CFD_BF_224_002_N.png,0,0,0,0,4,73,453,9,,,,,,,,,,,,2023-04-07_19h49.36.092,FaceAttractiveness,2022.2.5,144.1703285069056,
treatment,0% Never,100% Always,images\ RCHEEK_CFD_LM_203_026_N.png,0,0,0,0,4,74,454,90,,,,,,,,,,,,2023-04-07_19h49.36.092,FaceAttractiveness,2022.2.5,144.1703285069056,
treatment,0% Never,100% Always,images\ LIP_CFD_BF_224_002_N.png,0,0,0,0,4,75,455,47,,,,,,,,,,,,2023-04-07_19h49.36.092,FaceAttractiveness,2022.2.5,144.1703285069056,
treatment,0% Never,100% Always,"images\ LCHEEK_CFD_WF_002_004_N.png
",0,0,0,0,4,76,456,34,,,,,,,,,,,,2023-04-07_19h49.36.092,FaceAttractiveness,2022.2.5,144.1703285069056,
treatment,0% Never,100% Always,images\ NASALTIP_CFD_WF_250_167_N.png,0,0,0,0,4,77,457,74,,,,,,,,,,,,2023-04-07_19h49.36.092,FaceAttractiveness,2022.2.5,144.1703285069056,
treatment,0% Never,100% Always,images\ LCHEEK_CFD_WM_212_097_N.png,0,0,0,0,4,78,458,37,,,,,,,,,,,,2023-04-07_19h49.36.092,FaceAttractiveness,2022.2.5,144.1703285069056,
treatment,0% Never,100% Always,images\ RCHEEK_CFD_WM_212_097_N.png,0,0,0,0,4,79,459,94,,,,,,,,,,,,2023-04-07_19h49.36.092,FaceAttractiveness,2022.2.5,144.1703285069056,
treatment,0% Never,100% Always,"images\ LCHEEK_CFD_BM_234_172_N.png
",0,0,0,0,4,80,460,30,,,,,,,,,,,,2023-04-07_19h49.36.092,FaceAttractiveness,2022.2.5,144.1703285069056,
treatment,0% Never,100% Always,images\ LIP_CFD_LM_203_026_N.png,0,0,0,0,4,81,461,52,,,,,,,,,,,,2023-04-07_19h49.36.092,FaceAttractiveness,2022.2.5,144.1703285069056,
treatment,0% Never,100% Always,images\FOREHEAD_035_M_F_N_A.png,0,0,0,0,4,82,462,1,,,,,,,,,,,,2023-04-07_19h49.36.092,FaceAttractiveness,2022.2.5,144.1703285069056,
treatment,0% Never,100% Always,images\ LCHEEK_CFD_LM_203_026_N.png,0,0,0,0,4,83,463,33,,,,,,,,,,,,2023-04-07_19h49.36.092,FaceAttractiveness,2022.2.5,144.1703285069056,
treatment,0% Never,100% Always,images\FOREHEAD_CFD_LF_224_176_N.png,0,0,0,0,4,84,464,12,,,,,,,,,,,,2023-04-07_19h49.36.092,FaceAttractiveness,2022.2.5,144.1703285069056,
treatment,0% Never,100% Always,images\ LIP_CFD_LM_201_057_N.png,0,0,0,0,4,85,465,51,,,,,,,,,,,,2023-04-07_19h49.36.092,FaceAttractiveness,2022.2.5,144.1703285069056,
treatment,0% Never,100% Always,images\FOREHEAD_136_M_M_N_A.png,0,0,0,0,4,86,466,3,,,,,,,,,,,,2023-04-07_19h49.36.092,FaceAttractiveness,2022.2.5,144.1703285069056,
treatment,0% Never,100% Always,images\ NASALTIP_CFD_BM_213_134_N.png,0,0,0,0,4,87,467,67,,,,,,,,,,,,2023-04-07_19h49.36.092,FaceAttractiveness,2022.2.5,144.1703285069056,
treatment,0% Never,100% Always,"images\ RCHEEK_136_M_M_N_A.png
",0,0,0,0,4,88,468,79,,,,,,,,,,,,2023-04-07_19h49.36.092,FaceAttractiveness,2022.2.5,144.1703285069056,
treatment,0% Never,100% Always,images\FOREHEAD_CFD_LM_203_026_N.png,0,0,0,0,4,89,469,14,,,,,,,,,,,,2023-04-07_19h49.36.092,FaceAttractiveness,2022.2.5,144.1703285069056,
treatment,0% Never,100% Always,images\ LIP_CFD_WM_212_097_N.png,0,0,0,0,4,90,470,56,,,,,,,,,,,,2023-04-07_19h49.36.092,FaceAttractiveness,2022.2.5,144.1703285069056,
treatment,0% Never,100% Always,images\FOREHEAD_CFD_BM_234_172_N.png,0,0,0,0,4,91,471,11,,,,,,,,,,,,2023-04-07_19h49.36.092,FaceAttractiveness,2022.2.5,144.1703285069056,
treatment,0% Never,100% Always,images\ LCHEEK_CFD_AF_237_223_N.png,0,0,0,0,4,92,472,24,,,,,,,,,,,,2023-04-07_19h49.36.092,FaceAttractiveness,2022.2.5,144.1703285069056,
treatment,0% Never,100% Always,images\ LCHEEK_CFD_BF_214_308_N.png,0,0,0,0,4,93,473,27,,,,,,,,,,,,2023-04-07_19h49.36.092,FaceAttractiveness,2022.2.5,144.1703285069056,
treatment,0% Never,100% Always,images\ LCHEEK_CFD_WF_200_099_N.png,0,0,0,0,4,94,474,35,,,,,,,,,,,,2023-04-07_19h49.36.092,FaceAttractiveness,2022.2.5,144.1703285069056,
treatment,0% Never,100% Always,images\ LIP_087_M_M_N_A.png,0,0,0,0,5,0,475,40,,,,,,,,,,,,2023-04-07_19h49.36.092,FaceAttractiveness,2022.2.5,144.1703285069056,
treatment,0% Never,100% Always,"images\ LCHEEK_CFD_BM_234_172_N.png
",0,0,0,0,5,1,476,30,,,,,,,,,,,,2023-04-07_19h49.36.092,FaceAttractiveness,2022.2.5,144.1703285069056,
treatment,0% Never,100% Always,images\ RCHEEK_CFD_BM_213_134_N.png,0,0,0,0,5,2,477,86,,,,,,,,,,,,2023-04-07_19h49.36.092,FaceAttractiveness,2022.2.5,144.1703285069056,
treatment,0% Never,100% Always,images\FOREHEAD_006_M_F_N_A.png,0,0,0,0,5,3,478,0,,,,,,,,,,,,2023-04-07_19h49.36.092,FaceAttractiveness,2022.2.5,144.1703285069056,
treatment,0% Never,100% Always,images\ LIP_CFD_WF_250_167_N.png,0,0,0,0,5,4,479,55,,,,,,,,,,,,2023-04-07_19h49.36.092,FaceAttractiveness,2022.2.5,144.1703285069056,
treatment,0% Never,100% Always,images\ LIP_CFD_LM_201_057_N.png,0,0,0,0,5,5,480,51,,,,,,,,,,,,2023-04-07_19h49.36.092,FaceAttractiveness,2022.2.5,144.1703285069056,
treatment,0% Never,100% Always,images\ LCHEEK_CFD_AF_231_357_N.png,0,0,0,0,5,6,481,23,,,,,,,,,,,,2023-04-07_19h49.36.092,FaceAttractiveness,2022.2.5,144.1703285069056,
treatment,0% Never,100% Always,images\ LCHEEK_006_M_F_N_A.png,0,0,0,0,5,7,482,19,,,,,,,,,,,,2023-04-07_19h49.36.092,FaceAttractiveness,2022.2.5,144.1703285069056,
treatment,0% Never,100% Always,images\FOREHEAD_136_M_M_N_A.png,0,0,0,0,5,8,483,3,,,,,,,,,,,,2023-04-07_19h49.36.092,FaceAttractiveness,2022.2.5,144.1703285069056,
treatment,0% Never,100% Always,images\ LCHEEK_CFD_BM_213_134_N.png,0,0,0,0,5,9,484,29,,,,,,,,,,,,2023-04-07_19h49.36.092,FaceAttractiveness,2022.2.5,144.1703285069056,
treatment,0% Never,100% Always,images\ LIP_CFD_AF_231_357_N.png,0,0,0,0,5,10,485,42,,,,,,,,,,,,2023-04-07_19h49.36.092,FaceAttractiveness,2022.2.5,144.1703285069056,
treatment,0% Never,100% Always,images\ NASALTIP_087_M_M_N_A.png,0,0,0,0,5,11,486,59,,,,,,,,,,,,2023-04-07_19h49.36.092,FaceAttractiveness,2022.2.5,144.1703285069056,
treatment,0% Never,100% Always,images\ LIP_CFD_AF_245_143_N.png,0,0,0,0,5,12,487,44,,,,,,,,,,,,2023-04-07_19h49.36.092,FaceAttractiveness,2022.2.5,144.1703285069056,
treatment,0% Never,100% Always,images\ NASALTIP_CFD_AF_231_357_N.png,0,0,0,0,5,13,488,61,,,,,,,,,,,,2023-04-07_19h49.36.092,FaceAttractiveness,2022.2.5,144.1703285069056,
treatment,0% Never,100% Always,images\ LCHEEK_035_M_F_N_A.png,0,0,0,0,5,14,489,20,,,,,,,,,,,,2023-04-07_19h49.36.092,FaceAttractiveness,2022.2.5,144.1703285069056,
treatment,0% Never,100% Always,"images\ NASALTIP_CFD_BM_234_172_N.png
",0,0,0,0,5,15,490,68,,,,,,,,,,,,2023-04-07_19h49.36.092,FaceAttractiveness,2022.2.5,144.1703285069056,
treatment,0% Never,100% Always,images\ RCHEEK_CFD_LM_201_057_N.png,0,0,0,0,5,16,491,89,,,,,,,,,,,,2023-04-07_19h49.36.092,FaceAttractiveness,2022.2.5,144.1703285069056,
treatment,0% Never,100% Always,images\ LCHEEK_CFD_WM_212_097_N.png,0,0,0,0,5,17,492,37,,,,,,,,,,,,2023-04-07_19h49.36.092,FaceAttractiveness,2022.2.5,144.1703285069056,
treatment,0% Never,100% Always,images\FOREHEAD_CFD_AF_231_357_N.png,0,0,0,0,5,18,493,4,,,,,,,,,,,,2023-04-07_19h49.36.092,FaceAttractiveness,2022.2.5,144.1703285069056,
treatment,0% Never,100% Always,images\ NASALTIP_CFD_LF_224_176_N.png,0,0,0,0,5,19,494,69,,,,,,,,,,,,2023-04-07_19h49.36.092,FaceAttractiveness,2022.2.5,144.1703285069056,
treatment,0% Never,100% Always,"images\ LIP_CFD_AM_233_236_N.png
",0,0,0,0,5,20,495,45,,,,,,,,,,,,2023-04-07_19h49.36.092,FaceAttractiveness,2022.2.5,144.1703285069056,
treatment,0% Never,100% Always,"images\ LCHEEK_136_M_M_N_A.png
",0,0,0,0,5,21,496,22,,,,,,,,,,,,2023-04-07_19h49.36.092,FaceAttractiveness,2022.2.5,144.1703285069056,
treatment,0% Never,100% Always,"images\ LCHEEK_CFD_AM_233_236_N.png
",0,0,0,0,5,22,497,26,,,,,,,,,,,,2023-04-07_19h49.36.092,FaceAttractiveness,2022.2.5,144.1703285069056,
treatment,0% Never,100% Always,images\ LCHEEK_CFD_BF_224_002_N.png,0,0,0,0,5,23,498,28,,,,,,,,,,,,2023-04-07_19h49.36.092,FaceAttractiveness,2022.2.5,144.1703285069056,
treatment,0% Never,100% Always,images\ NASALTIP_CFD_AF_237_223_N.png,0,0,0,0,5,24,499,62,,,,,,,,,,,,2023-04-07_19h49.36.092,FaceAttractiveness,2022.2.5,144.1703285069056,
treatment,0% Never,100% Always,"images\ LIP_136_M_M_N_A.png
",0,0,0,0,5,25,500,41,,,,,,,,,,,,2023-04-07_19h49.36.092,FaceAttractiveness,2022.2.5,144.1703285069056,
treatment,0% Never,100% Always,images\ RCHEEK_CFD_WM_212_097_N.png,0,0,0,0,5,26,501,94,,,,,,,,,,,,2023-04-07_19h49.36.092,FaceAttractiveness,2022.2.5,144.1703285069056,
treatment,0% Never,100% Always,"images\ RCHEEK_136_M_M_N_A.png
",0,0,0,0,5,27,502,79,,,,,,,,,,,,2023-04-07_19h49.36.092,FaceAttractiveness,2022.2.5,144.1703285069056,
treatment,0% Never,100% Always,images\FOREHEAD_035_M_F_N_A.png,0,0,0,0,5,28,503,1,,,,,,,,,,,,2023-04-07_19h49.36.092,FaceAttractiveness,2022.2.5,144.1703285069056,
treatment,0% Never,100% Always,images\ NASALTIP_CFD_AF_245_143_N.png,0,0,0,0,5,29,504,63,,,,,,,,,,,,2023-04-07_19h49.36.092,FaceAttractiveness,2022.2.5,144.1703285069056,
treatment,0% Never,100% Always,images\ RCHEEK_CFD_BF_224_002_N.png,0,0,0,0,5,30,505,85,,,,,,,,,,,,2023-04-07_19h49.36.092,FaceAttractiveness,2022.2.5,144.1703285069056,
treatment,0% Never,100% Always,images\FOREHEAD_CFD_AF_245_143_N.png,0,0,0,0,5,31,506,6,,,,,,,,,,,,2023-04-07_19h49.36.092,FaceAttractiveness,2022.2.5,144.1703285069056,
treatment,0% Never,100% Always,images\ RCHEEK_006_M_F_N_A.png,0,0,0,0,5,32,507,76,,,,,,,,,,,,2023-04-07_19h49.36.092,FaceAttractiveness,2022.2.5,144.1703285069056,
treatment,0% Never,100% Always,images\ LCHEEK_CFD_LF_224_176_N.png,0,0,0,0,5,33,508,31,,,,,,,,,,,,2023-04-07_19h49.36.092,FaceAttractiveness,2022.2.5,144.1703285069056,
treatment,0% Never,100% Always,images\FOREHEAD_CFD_AM_233_236_N.png,0,0,0,0,5,34,509,7,,,,,,,,,,,,2023-04-07_19h49.36.092,FaceAttractiveness,2022.2.5,144.1703285069056,
treatment,0% Never,100% Always,images\ RCHEEK_CFD_AF_245_143_N.png,0,0,0,0,5,35,510,82,,,,,,,,,,,,2023-04-07_19h49.36.092,FaceAttractiveness,2022.2.5,144.1703285069056,
treatment,0% Never,100% Always,images\ NASALTIP_CFD_LM_203_026_N.png,0,0,0,0,5,36,511,71,,,,,,,,,,,,2023-04-07_19h49.36.092,FaceAttractiveness,2022.2.5,144.1703285069056,
treatment,0% Never,100% Always,images\FOREHEAD_CFD_BF_224_002_N.png,0,0,0,0,5,37,512,9,,,,,,,,,,,,2023-04-07_19h49.36.092,FaceAttractiveness,2022.2.5,144.1703285069056,
treatment,0% Never,100% Always,images\ NASALTIP_CFD_LM_201_057_N.png,0,0,0,0,5,38,513,70,,,,,,,,,,,,2023-04-07_19h49.36.092,FaceAttractiveness,2022.2.5,144.1703285069056,
treatment,0% Never,100% Always,images\FOREHEAD_087_M_M_N_A.png,0,0,0,0,5,39,514,2,,,,,,,,,,,,2023-04-07_19h49.36.092,FaceAttractiveness,2022.2.5,144.1703285069056,
treatment,0% Never,100% Always,images\ LIP_CFD_AF_237_223_N.png,0,0,0,0,5,40,515,43,,,,,,,,,,,,2023-04-07_19h49.36.092,FaceAttractiveness,2022.2.5,144.1703285069056,
treatment,0% Never,100% Always,images\ LCHEEK_CFD_AF_245_143_N.png,0,0,0,0,5,41,516,25,,,,,,,,,,,,2023-04-07_19h49.36.092,FaceAttractiveness,2022.2.5,144.1703285069056,
treatment,0% Never,100% Always,images\ LIP_CFD_WM_212_097_N.png,0,0,0,0,5,42,517,56,,,,,,,,,,,,2023-04-07_19h49.36.092,FaceAttractiveness,2022.2.5,144.1703285069056,
treatment,0% Never,100% Always,"images\ NASALTIP_CFD_AM_233_236_N.png
",0,0,0,0,5,43,518,64,,,,,,,,,,,,2023-04-07_19h49.36.092,FaceAttractiveness,2022.2.5,144.1703285069056,
treatment,0% Never,100% Always,images\FOREHEAD_CFD_WF_250_167_N.png,0,0,0,0,5,44,519,17,,,,,,,,,,,,2023-04-07_19h49.36.092,FaceAttractiveness,2022.2.5,144.1703285069056,
treatment,0% Never,100% Always,images\ LCHEEK_CFD_WF_250_167_N.png,0,0,0,0,5,45,520,36,,,,,,,,,,,,2023-04-07_19h49.36.092,FaceAttractiveness,2022.2.5,144.1703285069056,
treatment,0% Never,100% Always,images\ NASALTIP_CFD_WM_212_097_N.png,0,0,0,0,5,46,521,75,,,,,,,,,,,,2023-04-07_19h49.36.092,FaceAttractiveness,2022.2.5,144.1703285069056,
treatment,0% Never,100% Always,images\ NASALTIP_CFD_BF_224_002_N.png,0,0,0,0,5,47,522,66,,,,,,,,,,,,2023-04-07_19h49.36.092,FaceAttractiveness,2022.2.5,144.1703285069056,
treatment,0% Never,100% Always,images\ NASALTIP_035_M_F_N_A.png,0,0,0,0,5,48,523,58,,,,,,,,,,,,2023-04-07_19h49.36.092,FaceAttractiveness,2022.2.5,144.1703285069056,
treatment,0% Never,100% Always,images\ RCHEEK_CFD_BF_214_308_N.png,0,0,0,0,5,49,524,84,,,,,,,,,,,,2023-04-07_19h49.36.092,FaceAttractiveness,2022.2.5,144.1703285069056,
treatment,0% Never,100% Always,images\ LCHEEK_087_M_M_N_A.png,0,0,0,0,5,50,525,21,,,,,,,,,,,,2023-04-07_19h49.36.092,FaceAttractiveness,2022.2.5,144.1703285069056,
treatment,0% Never,100% Always,images\FOREHEAD_CFD_BM_234_172_N.png,0,0,0,0,5,51,526,11,,,,,,,,,,,,2023-04-07_19h49.36.092,FaceAttractiveness,2022.2.5,144.1703285069056,
treatment,0% Never,100% Always,images\ LCHEEK_CFD_AF_237_223_N.png,0,0,0,0,5,52,527,24,,,,,,,,,,,,2023-04-07_19h49.36.092,FaceAttractiveness,2022.2.5,144.1703285069056,
treatment,0% Never,100% Always,"images\ RCHEEK_CFD_WF_002_004_N.png
",0,0,0,0,5,53,528,91,,,,,,,,,,,,2023-04-07_19h49.36.092,FaceAttractiveness,2022.2.5,144.1703285069056,
treatment,0% Never,100% Always,images\ RCHEEK_CFD_AF_237_223_N.png,0,0,0,0,5,54,529,81,,,,,,,,,,,,2023-04-07_19h49.36.092,FaceAttractiveness,2022.2.5,144.1703285069056,
treatment,0% Never,100% Always,images\ LIP_006_M_F_N_A.png,0,0,0,0,5,55,530,38,,,,,,,,,,,,2023-04-07_19h49.36.092,FaceAttractiveness,2022.2.5,144.1703285069056,
treatment,0% Never,100% Always,"images\ RCHEEK_CFD_BM_234_172_N.png
",0,0,0,0,5,56,531,87,,,,,,,,,,,,2023-04-07_19h49.36.092,FaceAttractiveness,2022.2.5,144.1703285069056,
treatment,0% Never,100% Always,images\ RCHEEK_035_M_F_N_A.png,0,0,0,0,5,57,532,77,,,,,,,,,,,,2023-04-07_19h49.36.092,FaceAttractiveness,2022.2.5,144.1703285069056,
treatment,0% Never,100% Always,images\ LCHEEK_CFD_LM_203_026_N.png,0,0,0,0,5,58,533,33,,,,,,,,,,,,2023-04-07_19h49.36.092,FaceAttractiveness,2022.2.5,144.1703285069056,
treatment,0% Never,100% Always,images\FOREHEAD_CFD_BM_213_134_N.png,0,0,0,0,5,59,534,10,,,,,,,,,,,,2023-04-07_19h49.36.092,FaceAttractiveness,2022.2.5,144.1703285069056,
treatment,0% Never,100% Always,"images\ LIP_CFD_WF_002_004_N.png
",0,0,0,0,5,60,535,53,,,,,,,,,,,,2023-04-07_19h49.36.092,FaceAttractiveness,2022.2.5,144.1703285069056,
treatment,0% Never,100% Always,images\ RCHEEK_CFD_AF_231_357_N.png,0,0,0,0,5,61,536,80,,,,,,,,,,,,2023-04-07_19h49.36.092,FaceAttractiveness,2022.2.5,144.1703285069056,
treatment,0% Never,100% Always,images\ RCHEEK_CFD_LM_203_026_N.png,0,0,0,0,5,62,537,90,,,,,,,,,,,,2023-04-07_19h49.36.092,FaceAttractiveness,2022.2.5,144.1703285069056,
treatment,0% Never,100% Always,images\FOREHEAD_CFD_LF_224_176_N.png,0,0,0,0,5,63,538,12,,,,,,,,,,,,2023-04-07_19h49.36.092,FaceAttractiveness,2022.2.5,144.1703285069056,
treatment,0% Never,100% Always,images\ RCHEEK_CFD_WF_250_167_N.png,0,0,0,0,5,64,539,93,,,,,,,,,,,,2023-04-07_19h49.36.092,FaceAttractiveness,2022.2.5,144.1703285069056,
treatment,0% Never,100% Always,images\ NASALTIP_CFD_WF_250_167_N.png,0,0,0,0,5,65,540,74,,,,,,,,,,,,2023-04-07_19h49.36.092,FaceAttractiveness,2022.2.5,144.1703285069056,
treatment,0% Never,100% Always,images\ RCHEEK_CFD_WF_200_099_N.png,0,0,0,0,5,66,541,92,,,,,,,,,,,,2023-04-07_19h49.36.092,FaceAttractiveness,2022.2.5,144.1703285069056,
treatment,0% Never,100% Always,images\ NASALTIP_006_M_F_N_A.png,0,0,0,0,5,67,542,57,,,,,,,,,,,,2023-04-07_19h49.36.092,FaceAttractiveness,2022.2.5,144.1703285069056,
treatment,0% Never,100% Always,images\ RCHEEK_CFD_LF_224_176_N.png,0,0,0,0,5,68,543,88,,,,,,,,,,,,2023-04-07_19h49.36.092,FaceAttractiveness,2022.2.5,144.1703285069056,
treatment,0% Never,100% Always,images\FOREHEAD_CFD_AF_237_223_N.png,0,0,0,0,5,69,544,5,,,,,,,,,,,,2023-04-07_19h49.36.092,FaceAttractiveness,2022.2.5,144.1703285069056,
treatment,0% Never,100% Always,images\ LIP_CFD_BF_224_002_N.png,0,0,0,0,5,70,545,47,,,,,,,,,,,,2023-04-07_19h49.36.092,FaceAttractiveness,2022.2.5,144.1703285069056,
treatment,0% Never,100% Always,images\ RCHEEK_087_M_M_N_A.png,0,0,0,0,5,71,546,78,,,,,,,,,,,,2023-04-07_19h49.36.092,FaceAttractiveness,2022.2.5,144.1703285069056,
treatment,0% Never,100% Always,images\ LIP_CFD_LM_203_026_N.png,0,0,0,0,5,72,547,52,,,,,,,,,,,,2023-04-07_19h49.36.092,FaceAttractiveness,2022.2.5,144.1703285069056,
treatment,0% Never,100% Always,images\ NASALTIP_CFD_WF_200_099_N.png,0,0,0,0,5,73,548,73,,,,,,,,,,,,2023-04-07_19h49.36.092,FaceAttractiveness,2022.2.5,144.1703285069056,
treatment,0% Never,100% Always,"images\ RCHEEK_CFD_AM_233_236_N.png
",0,0,0,0,5,74,549,83,,,,,,,,,,,,2023-04-07_19h49.36.092,FaceAttractiveness,2022.2.5,144.1703285069056,
treatment,0% Never,100% Always,images\FOREHEAD_CFD_WF_200_099_N.png,0,0,0,0,5,75,550,16,,,,,,,,,,,,2023-04-07_19h49.36.092,FaceAttractiveness,2022.2.5,144.1703285069056,
treatment,0% Never,100% Always,images\ LIP_CFD_BM_213_134_N.png,0,0,0,0,5,76,551,48,,,,,,,,,,,,2023-04-07_19h49.36.092,FaceAttractiveness,2022.2.5,144.1703285069056,
treatment,0% Never,100% Always,images\ LCHEEK_CFD_WF_200_099_N.png,0,0,0,0,5,77,552,35,,,,,,,,,,,,2023-04-07_19h49.36.092,FaceAttractiveness,2022.2.5,144.1703285069056,
treatment,0% Never,100% Always,images\ NASALTIP_CFD_BM_213_134_N.png,0,0,0,0,5,78,553,67,,,,,,,,,,,,2023-04-07_19h49.36.092,FaceAttractiveness,2022.2.5,144.1703285069056,
treatment,0% Never,100% Always,images\ LCHEEK_CFD_LM_201_057_N.png,0,0,0,0,5,79,554,32,,,,,,,,,,,,2023-04-07_19h49.36.092,FaceAttractiveness,2022.2.5,144.1703285069056,
treatment,0% Never,100% Always,images\ LIP_CFD_WF_200_099_N.png,0,0,0,0,5,80,555,54,,,,,,,,,,,,2023-04-07_19h49.36.092,FaceAttractiveness,2022.2.5,144.1703285069056,
treatment,0% Never,100% Always,images\ LIP_CFD_LF_224_176_N.png,0,0,0,0,5,81,556,50,,,,,,,,,,,,2023-04-07_19h49.36.092,FaceAttractiveness,2022.2.5,144.1703285069056,
treatment,0% Never,100% Always,images\FOREHEAD_CFD_LM_201_057_N.png,0,0,0,0,5,82,557,13,,,,,,,,,,,,2023-04-07_19h49.36.092,FaceAttractiveness,2022.2.5,144.1703285069056,
treatment,0% Never,100% Always,"images\ LCHEEK_CFD_WF_002_004_N.png
",0,0,0,0,5,83,558,34,,,,,,,,,,,,2023-04-07_19h49.36.092,FaceAttractiveness,2022.2.5,144.1703285069056,
treatment,0% Never,100% Always,images\ LIP_035_M_F_N_A.png,0,0,0,0,5,84,559,39,,,,,,,,,,,,2023-04-07_19h49.36.092,FaceAttractiveness,2022.2.5,144.1703285069056,
treatment,0% Never,100% Always,images\ LIP_CFD_BF_214_308_N.png,0,0,0,0,5,85,560,46,,,,,,,,,,,,2023-04-07_19h49.36.092,FaceAttractiveness,2022.2.5,144.1703285069056,
treatment,0% Never,100% Always,images\FOREHEAD_CFD_BF_214_308_N.png,0,0,0,0,5,86,561,8,,,,,,,,,,,,2023-04-07_19h49.36.092,FaceAttractiveness,2022.2.5,144.1703285069056,
treatment,0% Never,100% Always,images\FOREHEAD_CFD_LM_203_026_N.png,0,0,0,0,5,87,562,14,,,,,,,,,,,,2023-04-07_19h49.36.092,FaceAttractiveness,2022.2.5,144.1703285069056,
treatment,0% Never,100% Always,"images\ LIP_CFD_BM_234_172_N.png
",0,0,0,0,5,88,563,49,,,,,,,,,,,,2023-04-07_19h49.36.092,FaceAttractiveness,2022.2.5,144.1703285069056,
treatment,0% Never,100% Always,images\ LCHEEK_CFD_BF_214_308_N.png,0,0,0,0,5,89,564,27,,,,,,,,,,,,2023-04-07_19h49.36.092,FaceAttractiveness,2022.2.5,144.1703285069056,
treatment,0% Never,100% Always,images\FOREHEAD_CFD_WM_212_097_N.png,0,0,0,0,5,90,565,18,,,,,,,,,,,,2023-04-07_19h49.36.092,FaceAttractiveness,2022.2.5,144.1703285069056,
treatment,0% Never,100% Always,"images\ NASALTIP_136_M_M_N_A.png
",0,0,0,0,5,91,566,60,,,,,,,,,,,,2023-04-07_19h49.36.092,FaceAttractiveness,2022.2.5,144.1703285069056,
treatment,0% Never,100% Always,images\FOREHEAD_CFD_WF_002_004_N.png,0,0,0,0,5,92,567,15,,,,,,,,,,,,2023-04-07_19h49.36.092,FaceAttractiveness,2022.2.5,144.1703285069056,
treatment,0% Never,100% Always,"images\ NASALTIP_CFD_WF_002_004_N.png
",0,0,0,0,5,93,568,72,,,,,,,,,,,,2023-04-07_19h49.36.092,FaceAttractiveness,2022.2.5,144.1703285069056,
treatment,0% Never,100% Always,images\ NASALTIP_CFD_BF_214_308_N.png,0,0,0,0,5,94,569,65,,,,,,,,,,,,2023-04-07_19h49.36.092,FaceAttractiveness,2022.2.5,144.1703285069056,
treatment,0% Never,100% Always,"images\ LIP_CFD_AM_233_236_N.png
",0,0,0,0,6,0,570,45,,,,,,,,,,,,2023-04-07_19h49.36.092,FaceAttractiveness,2022.2.5,144.1703285069056,
treatment,0% Never,100% Always,images\ RCHEEK_006_M_F_N_A.png,0,0,0,0,6,1,571,76,,,,,,,,,,,,2023-04-07_19h49.36.092,FaceAttractiveness,2022.2.5,144.1703285069056,
treatment,0% Never,100% Always,images\ LCHEEK_CFD_AF_231_357_N.png,0,0,0,0,6,2,572,23,,,,,,,,,,,,2023-04-07_19h49.36.092,FaceAttractiveness,2022.2.5,144.1703285069056,
treatment,0% Never,100% Always,images\ LIP_CFD_WF_200_099_N.png,0,0,0,0,6,3,573,54,,,,,,,,,,,,2023-04-07_19h49.36.092,FaceAttractiveness,2022.2.5,144.1703285069056,
treatment,0% Never,100% Always,"images\ RCHEEK_CFD_BM_234_172_N.png
",0,0,0,0,6,4,574,87,,,,,,,,,,,,2023-04-07_19h49.36.092,FaceAttractiveness,2022.2.5,144.1703285069056,
treatment,0% Never,100% Always,images\ RCHEEK_035_M_F_N_A.png,0,0,0,0,6,5,575,77,,,,,,,,,,,,2023-04-07_19h49.36.092,FaceAttractiveness,2022.2.5,144.1703285069056,
treatment,0% Never,100% Always,"images\ LCHEEK_CFD_AM_233_236_N.png
",0,0,0,0,6,6,576,26,,,,,,,,,,,,2023-04-07_19h49.36.092,FaceAttractiveness,2022.2.5,144.1703285069056,
treatment,0% Never,100% Always,images\ RCHEEK_CFD_WM_212_097_N.png,0,0,0,0,6,7,577,94,,,,,,,,,,,,2023-04-07_19h49.36.092,FaceAttractiveness,2022.2.5,144.1703285069056,
treatment,0% Never,100% Always,"images\ RCHEEK_CFD_AM_233_236_N.png
",0,0,0,0,6,8,578,83,,,,,,,,,,,,2023-04-07_19h49.36.092,FaceAttractiveness,2022.2.5,144.1703285069056,
treatment,0% Never,100% Always,"images\ LCHEEK_CFD_WF_002_004_N.png
",0,0,0,0,6,9,579,34,,,,,,,,,,,,2023-04-07_19h49.36.092,FaceAttractiveness,2022.2.5,144.1703285069056,
treatment,0% Never,100% Always,images\ LCHEEK_035_M_F_N_A.png,0,0,0,0,6,10,580,20,,,,,,,,,,,,2023-04-07_19h49.36.092,FaceAttractiveness,2022.2.5,144.1703285069056,
treatment,0% Never,100% Always,images\ RCHEEK_CFD_BF_224_002_N.png,0,0,0,0,6,11,581,85,,,,,,,,,,,,2023-04-07_19h49.36.092,FaceAttractiveness,2022.2.5,144.1703285069056,
treatment,0% Never,100% Always,images\ RCHEEK_CFD_LF_224_176_N.png,0,0,0,0,6,12,582,88,,,,,,,,,,,,2023-04-07_19h49.36.092,FaceAttractiveness,2022.2.5,144.1703285069056,
treatment,0% Never,100% Always,"images\ NASALTIP_CFD_AM_233_236_N.png
",0,0,0,0,6,13,583,64,,,,,,,,,,,,2023-04-07_19h49.36.092,FaceAttractiveness,2022.2.5,144.1703285069056,
treatment,0% Never,100% Always,images\ LIP_CFD_LM_203_026_N.png,0,0,0,0,6,14,584,52,,,,,,,,,,,,2023-04-07_19h49.36.092,FaceAttractiveness,2022.2.5,144.1703285069056,
treatment,0% Never,100% Always,images\ LIP_CFD_AF_231_357_N.png,0,0,0,0,6,15,585,42,,,,,,,,,,,,2023-04-07_19h49.36.092,FaceAttractiveness,2022.2.5,144.1703285069056,
treatment,0% Never,100% Always,images\ LIP_CFD_LF_224_176_N.png,0,0,0,0,6,16,586,50,,,,,,,,,,,,2023-04-07_19h49.36.092,FaceAttractiveness,2022.2.5,144.1703285069056,
treatment,0% Never,100% Always,images\ RCHEEK_CFD_AF_237_223_N.png,0,0,0,0,6,17,587,81,,,,,,,,,,,,2023-04-07_19h49.36.092,FaceAttractiveness,2022.2.5,144.1703285069056,
treatment,0% Never,100% Always,images\ NASALTIP_CFD_AF_231_357_N.png,0,0,0,0,6,18,588,61,,,,,,,,,,,,2023-04-07_19h49.36.092,FaceAttractiveness,2022.2.5,144.1703285069056,
treatment,0% Never,100% Always,images\ LCHEEK_CFD_AF_237_223_N.png,0,0,0,0,6,19,589,24,,,,,,,,,,,,2023-04-07_19h49.36.092,FaceAttractiveness,2022.2.5,144.1703285069056,
treatment,0% Never,100% Always,images\ NASALTIP_CFD_WM_212_097_N.png,0,0,0,0,6,20,590,75,,,,,,,,,,,,2023-04-07_19h49.36.092,FaceAttractiveness,2022.2.5,144.1703285069056,
treatment,0% Never,100% Always,images\ LCHEEK_CFD_BF_214_308_N.png,0,0,0,0,6,21,591,27,,,,,,,,,,,,2023-04-07_19h49.36.092,FaceAttractiveness,2022.2.5,144.1703285069056,
