faceImages,originalFaceTrials.thisRepN,originalFaceTrials.thisTrialN,originalFaceTrials.thisN,originalFaceTrials.thisIndex,faceQuestions.thisRepN,faceQuestions.thisTrialN,faceQuestions.thisN,faceQuestions.thisIndex,faceImages_q,ques_instr.started,mouse_4.started,mouse_4.x,mouse_4.y,mouse_4.leftButton,mouse_4.midButton,mouse_4.rightButton,mouse_4.time,mouse_4.clicked_name,slider_rad_therapy.started,text_rad_therapy.started,slider_surgery.started,text_surgery.started,image.started,mouse_6.started,slider_rad_therapy.response,slider_rad_therapy.rt,slider_surgery.response,slider_surgery.rt,mouse_6.x,mouse_6.y,mouse_6.leftButton,mouse_6.midButton,mouse_6.rightButton,mouse_6.time,mouse_6.clicked_name,instrBlock.started,mouse.started,mouse.x,mouse.y,mouse.leftButton,mouse.midButton,mouse.rightButton,mouse.clicked_name,face_image.started,slider_treatment_surgery.started,NextBu.started,slider_treatment_radiation.started,text_treatment_surgery.started,text_treatment_radiation.started,mouse_5.started,slider_treatment_surgery.response,slider_treatment_surgery.rt,mouse_5.x,mouse_5.y,mouse_5.leftButton,mouse_5.midButton,mouse_5.rightButton,mouse_5.clicked_name,slider_treatment_radiation.response,slider_treatment_radiation.rt,ITI,text.started,text.stopped,face_image_q.started,slider_trustworthy.started,text_trustworthy.started,slider_aggressive.started,text_aggressive.started,Confirm.started,mouse_7.started,Name,Gender,Age,Ethnicity,date,expName,psychopyVersion,frameRate,
,,,,,,,,,,8.725959299999886,0.4992822999993223,[-0.15],[0.032407407407407406],[1],[0],[0],[0.04379400000016176],['ques_instr'],,,,,,,,,,,,,,,,,,,,,,,,,,,,,,,,,,,,,,,,,,,,,,,,,,,,,,,,,2023-04-07_22h16.13.324,FaceAttractiveness,2022.2.5,143.1764262881825,
,,,,,,,,,,,,,,,,,,,9.312323400000423,9.312323400000423,9.312323400000423,9.312323400000423,9.312323400000423,0.0018963000002258923,2.2925925925925927,1.3706390999996074,3.7185185185185183,2.3655561000005036,"[-0.17685185185185184, 0.17962962962962964, 0.6712962962962963]","[0.10462962962962963, -0.2935185185185185, -0.3972222222222222]","[1, 1, 1]","[0, 0, 0]","[0, 0, 0]","[1.246574600000713, 2.2368022000000565, 3.9493710000006104]",['image'],,,,,,,,,,,,,,,,,,,,,,,,,,,,,,,,,,,,,,,,2023-04-07_22h16.13.324,FaceAttractiveness,2022.2.5,143.1764262881825,
,,,,,,,,,,,,,,,,,,,,,,,,,,,,,,,,,,,,13.23756289999983,0.5021498000005522,0.04722222222222222,-0.11018518518518519,1,0,0,instrBlock,,,,,,,,,,,,,,,,,,,,,,,,,,,,,,,,2023-04-07_22h16.13.324,FaceAttractiveness,2022.2.5,143.1764262881825,
images\NASALTIP_087_M_M_N_A.png,0,0,0,59,,,,,,,,,,,,,,,,,,,,,,,,,,,,,,,,,,,,,,,,14.1470874000006,14.438269700000092,14.438269700000092,14.438269700000092,14.438269700000092,14.438269700000092,0.3082724000005328,54.629629629629626,1.4118608999997377,0.004629629629629629,-0.4305555555555556,1,0,0,NextBu,58.333333333333336,2.4275063999994018,0.9225207018842032,17.087158600000294,18.0140308,,,,,,,,,,,,2023-04-07_22h16.13.324,FaceAttractiveness,2022.2.5,143.1764262881825,
images\LIP_CFD_WF_200_099_N.png,0,1,1,54,,,,,,,,,,,,,,,,,,,,,,,,,,,,,,,,,,,,,,,,18.0140308,18.311373399999866,18.311373399999866,18.311373399999866,18.311373399999866,18.311373399999866,0.3074944999998479,48.7962962962963,0.8926576000003479,0.009259259259259259,-0.44351851851851853,1,0,0,NextBu,45.27777777777778,1.3524456000004648,0.7020403983648811,19.70574360000046,20.41592649999984,,,,,,,,,,,,2023-04-07_22h16.13.324,FaceAttractiveness,2022.2.5,143.1764262881825,
images\LIP_CFD_BM_234_172_N.png,0,2,2,49,,,,,,,,,,,,,,,,,,,,,,,,,,,,,,,,,,,,,,,,20.41592649999984,20.714010400000006,20.714010400000006,20.714010400000006,20.714010400000006,20.714010400000006,0.3072260999997525,52.5,0.8588454000000638,0.030555555555555555,-0.42314814814814816,1,0,0,NextBu,51.01851851851852,1.4077085999997507,0.8085300226802682,22.149038999999902,22.96444640000027,,,,,,,,,,,,2023-04-07_22h16.13.324,FaceAttractiveness,2022.2.5,143.1764262881825,
images\RCHEEK_035_M_F_N_A.png,0,3,3,77,,,,,,,,,,,,,,,,,,,,,,,,,,,,,,,,,,,,,,,,22.96444640000027,23.264025100000254,23.264025100000254,23.264025100000254,23.264025100000254,23.264025100000254,0.30881959999987885,53.148148148148145,0.950360400000136,0.006481481481481481,-0.42685185185185187,1,0,0,NextBu,52.96296296296297,1.775141000000076,0.7505429578439757,25.031040800000483,25.7844113000001,,,,,,,,,,,,2023-04-07_22h16.13.324,FaceAttractiveness,2022.2.5,143.1764262881825,
images\RCHEEK_CFD_WM_212_097_N.png,0,4,4,94,,,,,,,,,,,,,,,,,,,,,,,,,,,,,,,,,,,,,,,,25.7844113000001,26.075781100000313,26.075781100000313,26.075781100000313,26.075781100000313,26.075781100000313,0.30152539999926375,46.38888888888889,1.1875010000003385,-0.03888888888888889,-0.38796296296296295,1,0,0,NextBu,45.925925925925924,1.886666200000036,0.6059785449234834,27.975660200000675,28.590188400000443,,,,,,,,,,,,2023-04-07_22h16.13.324,FaceAttractiveness,2022.2.5,143.1764262881825,
images\FOREHEAD_CFD_LM_203_026_N.png,0,5,5,14,,,,,,,,,,,,,,,,,,,,,,,,,,,,,,,,,,,,,,,,28.590188400000443,28.887678699999924,28.887678699999924,28.887678699999924,28.887678699999924,28.887678699999924,0.30741519999992306,47.5,0.956978799999888,-0.021296296296296296,-0.41388888888888886,1,0,0,NextBu,50.37037037037037,1.4981010000001334,0.5690515714646885,30.385420000000522,30.957129800000075,,,,,,,,,,,,2023-04-07_22h16.13.324,FaceAttractiveness,2022.2.5,143.1764262881825,
images\FOREHEAD_CFD_BM_234_172_N.png,0,6,6,11,,,,,,,,,,,,,,,,,,,,,,,,,,,,,,,,,,,,,,,,30.957129800000075,31.250372100000277,31.250372100000277,31.250372100000277,31.250372100000277,31.250372100000277,0.3022922000000108,45.64814814814815,0.8938563000001523,-0.013888888888888888,-0.4064814814814815,1,0,0,NextBu,48.14814814814815,1.4581153999997696,0.5216045308655245,32.71190170000045,33.2418959000006,,,,,,,,,,,,2023-04-07_22h16.13.324,FaceAttractiveness,2022.2.5,143.1764262881825,
images\LCHEEK_CFD_WF_250_167_N.png,0,7,7,36,,,,,,,,,,,,,,,,,,,,,,,,,,,,,,,,,,,,,,,,33.2418959000006,33.54019599999992,33.54019599999992,33.54019599999992,33.54019599999992,33.54019599999992,0.30690170000070793,46.38888888888889,0.851966000000175,-0.009259259259259259,-0.4148148148148148,1,0,0,NextBu,51.11111111111111,1.736439899999823,0.7265565950462868,35.2877454999998,36.0204732000002,,,,,,,,,,,,2023-04-07_22h16.13.324,FaceAttractiveness,2022.2.5,143.1764262881825,
images\NASALTIP_CFD_AM_233_236_N.png,0,8,8,64,,,,,,,,,,,,,,,,,,,,,,,,,,,,,,,,,,,,,,,,36.0204732000002,36.311114300000554,36.311114300000554,36.311114300000554,36.311114300000554,36.311114300000554,0.3012351999996099,45.925925925925924,0.6866032999996605,-0.030555555555555555,-0.4074074074074074,1,0,0,NextBu,51.66666666666667,1.3466693999998824,0.5580849019463467,37.62770679999994,38.1940783,,,,,,,,,,,,2023-04-07_22h16.13.324,FaceAttractiveness,2022.2.5,143.1764262881825,
images\LIP_136_M_M_N_A.png,0,9,9,41,,,,,,,,,,,,,,,,,,,,,,,,,,,,,,,,,,,,,,,,38.1940783,38.49169419999998,38.49169419999998,38.49169419999998,38.49169419999998,38.49169419999998,0.30724670000017795,43.7037037037037,0.7670580999993035,0.003703703703703704,-0.4111111111111111,1,0,0,NextBu,51.2962962962963,1.2437177000001611,0.7083324005538508,39.73207580000053,40.44399920000069,,,,,,,,,,,,2023-04-07_22h16.13.324,FaceAttractiveness,2022.2.5,143.1764262881825,
images\RCHEEK_CFD_LM_201_057_N.png,0,10,10,89,,,,,,,,,,,,,,,,,,,,,,,,,,,,,,,,,,,,,,,,40.44399920000069,40.74189519999982,40.74189519999982,40.74189519999982,40.74189519999982,40.74189519999982,0.30711090000022523,46.75925925925926,0.8015456000002814,0.016666666666666666,-0.41203703703703703,1,0,0,NextBu,55.74074074074073,1.3651786999998876,0.5089859374319194,42.04496050000034,42.5625026000007,,,,,,,,,,,,2023-04-07_22h16.13.324,FaceAttractiveness,2022.2.5,143.1764262881825,
images\FOREHEAD_CFD_WF_002_004_N.png,0,11,11,15,,,,,,,,,,,,,,,,,,,,,,,,,,,,,,,,,,,,,,,,42.5625026000007,42.86015380000026,42.86015380000026,42.86015380000026,42.86015380000026,42.86015380000026,0.3078771999998935,44.62962962962963,0.9014629000002969,-0.006481481481481481,-0.39444444444444443,1,0,0,NextBu,56.481481481481474,1.405171400000654,0.8020406867916818,44.17618070000026,44.985364400000435,,,,,,,,,,,,2023-04-07_22h16.13.324,FaceAttractiveness,2022.2.5,143.1764262881825,
images\LCHEEK_CFD_WF_200_099_N.png,0,12,12,35,,,,,,,,,,,,,,,,,,,,,,,,,,,,,,,,,,,,,,,,44.985364400000435,45.28289820000009,45.28289820000009,45.28289820000009,45.28289820000009,45.28289820000009,0.30668229999992036,42.03703703703704,0.8107853999999861,-0.02962962962962963,-0.3787037037037037,1,0,0,NextBu,54.629629629629626,1.3414799999991374,0.5149054683776171,46.676464600000145,47.19339930000024,,,,,,,,,,,,2023-04-07_22h16.13.324,FaceAttractiveness,2022.2.5,143.1764262881825,
images\LIP_CFD_LM_201_057_N.png,0,13,13,51,,,,,,,,,,,,,,,,,,,,,,,,,,,,,,,,,,,,,,,,47.19339930000024,47.49114559999998,47.49114559999998,47.49114559999998,47.49114559999998,47.49114559999998,0.30690190000041184,39.72222222222223,0.7452942999998413,0.03148148148148148,-0.41759259259259257,1,0,0,NextBu,60.092592592592595,1.2435691999999108,0.8902794061977365,48.70423680000022,49.60256130000016,,,,,,,,,,,,2023-04-07_22h16.13.324,FaceAttractiveness,2022.2.5,143.1764262881825,
images\RCHEEK_CFD_AF_245_143_N.png,0,14,14,82,,,,,,,,,,,,,,,,,,,,,,,,,,,,,,,,,,,,,,,,49.60256130000016,49.90039220000017,49.90039220000017,49.90039220000017,49.90039220000017,49.90039220000017,0.30730659999971977,41.48148148148148,0.8571240999999645,-0.011111111111111112,-0.37407407407407406,1,0,0,NextBu,49.72222222222222,2.1722429999999804,0.867544978394748,51.995525799999996,52.86837780000042,,,,,,,,,,,,2023-04-07_22h16.13.324,FaceAttractiveness,2022.2.5,143.1764262881825,
images\FOREHEAD_CFD_WM_212_097_N.png,0,15,15,18,,,,,,,,,,,,,,,,,,,,,,,,,,,,,,,,,,,,,,,,52.86837780000042,53.16492130000006,53.16492130000006,53.16492130000006,53.16492130000006,53.16492130000006,0.3073632000005091,45.83333333333333,0.9400535000004311,0.023148148148148147,-0.3907407407407407,1,0,0,NextBu,54.166666666666664,1.5211035000002084,0.725716408659643,54.64840210000057,55.38103090000004,,,,,,,,,,,,2023-04-07_22h16.13.324,FaceAttractiveness,2022.2.5,143.1764262881825,
images\FOREHEAD_CFD_WF_200_099_N.png,0,16,16,16,,,,,,,,,,,,,,,,,,,,,,,,,,,,,,,,,,,,,,,,55.38103090000004,55.67831920000026,55.67831920000026,55.67831920000026,55.67831920000026,55.67831920000026,0.3071898999996847,45.27777777777778,0.9602560000002995,-0.018518518518518517,-0.3972222222222222,1,0,0,NextBu,52.03703703703704,1.7144296999995277,0.9322160019263255,57.398843200000556,58.33846420000009,,,,,,,,,,,,2023-04-07_22h16.13.324,FaceAttractiveness,2022.2.5,143.1764262881825,
images\NASALTIP_CFD_AF_245_143_N.png,0,17,17,63,,,,,,,,,,,,,,,,,,,,,,,,,,,,,,,,,,,,,,,,58.33846420000009,58.63693010000043,58.63693010000043,58.63693010000043,58.63693010000043,58.63693010000043,0.3071663000000626,49.44444444444444,1.1637180000006992,0.03611111111111111,-0.3787037037037037,1,0,0,NextBu,51.388888888888886,2.2282068000004074,0.7383529947565798,60.9392613,61.6861214999999,,,,,,,,,,,,2023-04-07_22h16.13.324,FaceAttractiveness,2022.2.5,143.1764262881825,
images\RCHEEK_CFD_BF_214_308_N.png,0,18,18,84,,,,,,,,,,,,,,,,,,,,,,,,,,,,,,,,,,,,,,,,61.6861214999999,61.98385440000038,61.98385440000038,61.98385440000038,61.98385440000038,61.98385440000038,0.30720889999975043,48.05555555555556,0.850219100000686,0.023148148148148147,-0.3888888888888889,1,0,0,NextBu,52.59259259259259,1.3869727000001149,0.774595538969956,63.350084499999866,64.13075790000039,,,,,,,,,,,,2023-04-07_22h16.13.324,FaceAttractiveness,2022.2.5,143.1764262881825,
images\RCHEEK_CFD_LF_224_176_N.png,0,19,19,88,,,,,,,,,,,,,,,,,,,,,,,,,,,,,,,,,,,,,,,,64.13075790000039,64.42747959999997,64.42747959999997,64.42747959999997,64.42747959999997,64.42747959999997,0.30653699999948003,52.129629629629626,0.90488170000026,0.053703703703703705,-0.40555555555555556,1,0,0,NextBu,55.833333333333336,1.66476750000038,0.8014926667044222,66.05768320000061,66.86627649999991,,,,,,,,,,,,2023-04-07_22h16.13.324,FaceAttractiveness,2022.2.5,143.1764262881825,
images\RCHEEK_136_M_M_N_A.png,0,20,20,79,,,,,,,,,,,,,,,,,,,,,,,,,,,,,,,,,,,,,,,,66.86627649999991,67.16336970000066,67.16336970000066,67.16336970000066,67.16336970000066,67.16336970000066,0.3062958000000435,50.64814814814815,0.9696707000002789,0.04351851851851852,-0.4203703703703704,1,0,0,NextBu,53.888888888888886,1.6317871999999625,0.7628673643838388,68.7942434000006,69.56028530000003,,,,,,,,,,,,2023-04-07_22h16.13.324,FaceAttractiveness,2022.2.5,143.1764262881825,
images\LCHEEK_CFD_AM_233_236_N.png,0,21,21,26,,,,,,,,,,,,,,,,,,,,,,,,,,,,,,,,,,,,,,,,69.56028530000003,69.86360120000063,69.86360120000063,69.86360120000063,69.86360120000063,69.86360120000063,0.2992241000001741,67.4074074074074,65.75483329999952,0.05277777777777778,-0.3685185185185185,1,0,0,NextBu,54.44444444444444,66.53921249999985,0.5589663489793386,136.44493750000038,137.01125839999986,,,,,,,,,,,,2023-04-07_22h16.13.324,FaceAttractiveness,2022.2.5,143.1764262881825,
images\NASALTIP_CFD_BM_213_134_N.png,0,22,22,67,,,,,,,,,,,,,,,,,,,,,,,,,,,,,,,,,,,,,,,,137.01125839999986,137.30926379999983,137.30926379999983,137.30926379999983,137.30926379999983,137.30926379999983,0.2991650000003574,70.37037037037037,27.98557239999991,0.000925925925925926,-0.4287037037037037,1,0,0,NextBu,64.16666666666666,28.760046299999885,0.5628686533507983,166.18736440000066,166.75370480000038,,,,,,,,,,,,2023-04-07_22h16.13.324,FaceAttractiveness,2022.2.5,143.1764262881825,
images\LCHEEK_CFD_WF_002_004_N.png,0,23,23,34,,,,,,,,,,,,,,,,,,,,,,,,,,,,,,,,,,,,,,,,166.75370480000038,167.04424840000047,167.04424840000047,167.04424840000047,167.04424840000047,167.04424840000047,0.30112819999976637,62.59259259259259,0.8919924000001629,-0.007407407407407408,-0.39444444444444443,1,0,0,NextBu,61.2037037037037,1.514732599999661,0.8897060231343563,168.52094410000063,169.41360309999982,,,,,,,,,,,,2023-04-07_22h16.13.324,FaceAttractiveness,2022.2.5,143.1764262881825,
images\LCHEEK_035_M_F_N_A.png,0,24,24,20,,,,,,,,,,,,,,,,,,,,,,,,,,,,,,,,,,,,,,,,169.41360309999982,169.71066359999986,169.71066359999986,169.71066359999986,169.71066359999986,169.71066359999986,0.30741800000032526,40.37037037037037,0.8504975999994713,-0.008333333333333333,-0.3990740740740741,1,0,0,NextBu,54.81481481481482,1.5200516000004427,0.9175392752687989,171.21608090000063,172.1414392000006,,,,,,,,,,,,2023-04-07_22h16.13.324,FaceAttractiveness,2022.2.5,143.1764262881825,
images\FOREHEAD_087_M_M_N_A.png,0,25,25,2,,,,,,,,,,,,,,,,,,,,,,,,,,,,,,,,,,,,,,,,172.1414392000006,172.43922230000044,172.43922230000044,172.43922230000044,172.43922230000044,172.43922230000044,0.30651140000009036,44.53703703703704,0.7864236999994318,0.025,-0.39444444444444443,1,0,0,NextBu,60.64814814814815,1.755196099999921,0.7555700187503702,174.1803488000005,174.94099340000048,,,,,,,,,,,,2023-04-07_22h16.13.324,FaceAttractiveness,2022.2.5,143.1764262881825,
images\LCHEEK_CFD_LF_224_176_N.png,0,26,26,31,,,,,,,,,,,,,,,,,,,,,,,,,,,,,,,,,,,,,,,,174.94099340000048,175.23841290000018,175.23841290000018,175.23841290000018,175.23841290000018,175.23841290000018,0.3073812000002363,48.24074074074074,0.8301935999998022,0.013888888888888888,-0.4,1,0,0,NextBu,56.2037037037037,1.420851799999582,0.5669556527845288,176.6668950000003,177.23873640000056,,,,,,,,,,,,2023-04-07_22h16.13.324,FaceAttractiveness,2022.2.5,143.1764262881825,
images\FOREHEAD_CFD_LF_224_176_N.png,0,27,27,12,,,,,,,,,,,,,,,,,,,,,,,,,,,,,,,,,,,,,,,,177.23873640000056,177.537327,177.537327,177.537327,177.537327,177.537327,0.30818749999980355,50.46296296296296,0.7587941000001592,0.030555555555555555,-0.40925925925925927,1,0,0,NextBu,42.96296296296296,1.305748499999936,0.8351471093975188,178.84083509999982,179.68293350000022,,,,,,,,,,,,2023-04-07_22h16.13.324,FaceAttractiveness,2022.2.5,143.1764262881825,
images\RCHEEK_CFD_WF_002_004_N.png,0,28,28,91,,,,,,,,,,,,,,,,,,,,,,,,,,,,,,,,,,,,,,,,179.68293350000022,179.98078309999983,179.98078309999983,179.98078309999983,179.98078309999983,179.98078309999983,0.3069465999997192,48.98148148148148,0.6902189000002181,0.04259259259259259,-0.39814814814814814,1,0,0,NextBu,60.83333333333334,1.3204003999999259,0.5483802538374173,181.24222360000022,181.79441730000053,,,,,,,,,,,,2023-04-07_22h16.13.324,FaceAttractiveness,2022.2.5,143.1764262881825,
images\NASALTIP_CFD_LF_224_176_N.png,0,29,29,69,,,,,,,,,,,,,,,,,,,,,,,,,,,,,,,,,,,,,,,,181.79441730000053,182.09293789999992,182.09293789999992,182.09293789999992,182.09293789999992,182.09293789999992,0.30756620000011026,42.77777777777778,1.1261289000003671,0.06759259259259259,-0.39351851851851855,1,0,0,NextBu,61.66666666666667,1.7343204000007972,0.9899060297706772,183.7424302999998,184.7375873000001,,,,,,,,,,,,2023-04-07_22h16.13.324,FaceAttractiveness,2022.2.5,143.1764262881825,
images\NASALTIP_CFD_AF_237_223_N.png,0,30,30,62,,,,,,,,,,,,,,,,,,,,,,,,,,,,,,,,,,,,,,,,184.7375873000001,185.03697770000053,185.03697770000053,185.03697770000053,185.03697770000053,185.03697770000053,0.3082107000000178,46.01851851851852,1.0363050000005387,-0.011111111111111112,-0.38055555555555554,1,0,0,NextBu,55.37037037037037,1.755295699999806,0.8424648460861064,186.75590210000064,187.6057176000004,,,,,,,,,,,,2023-04-07_22h16.13.324,FaceAttractiveness,2022.2.5,143.1764262881825,
images\LCHEEK_CFD_LM_201_057_N.png,0,31,31,32,,,,,,,,,,,,,,,,,,,,,,,,,,,,,,,,,,,,,,,,187.6057176000004,187.8982386000007,187.8982386000007,187.8982386000007,187.8982386000007,187.8982386000007,0.30145229999925505,36.66666666666667,0.7675660000004427,-0.040740740740740744,-0.40555555555555556,1,0,0,NextBu,53.148148148148145,1.4094078999996782,0.7935969226166831,189.26407110000036,190.06479620000027,,,,,,,,,,,,2023-04-07_22h16.13.324,FaceAttractiveness,2022.2.5,143.1764262881825,
images\LIP_CFD_WF_250_167_N.png,0,32,32,55,,,,,,,,,,,,,,,,,,,,,,,,,,,,,,,,,,,,,,,,190.06479620000027,190.3633636000004,190.3633636000004,190.3633636000004,190.3633636000004,190.3633636000004,0.30772330000036163,41.388888888888886,4.105084099999658,-0.027777777777777776,-0.4166666666666667,1,0,0,NextBu,52.77777777777778,4.834983900000225,0.50402802608392,195.34835980000025,195.85772700000052,,,,,,,,,,,,2023-04-07_22h16.13.324,FaceAttractiveness,2022.2.5,143.1764262881825,
images\LCHEEK_CFD_WM_212_097_N.png,0,33,33,37,,,,,,,,,,,,,,,,,,,,,,,,,,,,,,,,,,,,,,,,195.85772700000052,196.15487480000047,196.15487480000047,196.15487480000047,196.15487480000047,196.15487480000047,0.3080435000001671,52.77777777777778,2.1797458999999435,-0.049074074074074076,-0.41388888888888886,1,0,0,NextBu,49.907407407407405,3.092736500000683,0.5605292991103652,199.26284110000051,199.83056380000016,,,,,,,,,,,,2023-04-07_22h16.13.324,FaceAttractiveness,2022.2.5,143.1764262881825,
images\NASALTIP_CFD_BF_224_002_N.png,0,34,34,66,,,,,,,,,,,,,,,,,,,,,,,,,,,,,,,,,,,,,,,,199.83056380000016,200.12779940000019,200.12779940000019,200.12779940000019,200.12779940000019,200.12779940000019,0.30843430000004446,47.40740740740741,1.0887352999998257,-0.03611111111111111,-0.4027777777777778,1,0,0,NextBu,51.48148148148148,1.8774840999994922,0.7127625419633798,202.0130751000006,202.73123329999999,,,,,,,,,,,,2023-04-07_22h16.13.324,FaceAttractiveness,2022.2.5,143.1764262881825,
images\LIP_087_M_M_N_A.png,0,35,35,40,,,,,,,,,,,,,,,,,,,,,,,,,,,,,,,,,,,,,,,,202.73123329999999,203.02898900000037,203.02898900000037,203.02898900000037,203.02898900000037,203.02898900000037,0.30700379999962024,45.092592592592595,0.9251002000000881,-0.05277777777777778,-0.375,1,0,0,NextBu,49.81481481481482,1.4267105999997511,0.614596938885692,204.40263959999993,205.02270360000057,,,,,,,,,,,,2023-04-07_22h16.13.324,FaceAttractiveness,2022.2.5,143.1764262881825,
images\LCHEEK_CFD_BM_213_134_N.png,0,36,36,29,,,,,,,,,,,,,,,,,,,,,,,,,,,,,,,,,,,,,,,,205.02270360000057,205.3202138000006,205.3202138000006,205.3202138000006,205.3202138000006,205.3202138000006,0.30682009999964066,42.96296296296296,1.626789099999769,-0.022222222222222223,-0.3685185185185185,1,0,0,NextBu,48.7962962962963,2.2650469000000157,0.8270832303393698,207.56913170000007,208.39804230000027,,,,,,,,,,,,2023-04-07_22h16.13.324,FaceAttractiveness,2022.2.5,143.1764262881825,
images\LCHEEK_CFD_BF_224_002_N.png,0,37,37,28,,,,,,,,,,,,,,,,,,,,,,,,,,,,,,,,,,,,,,,,208.39804230000027,208.69586030000028,208.69586030000028,208.69586030000028,208.69586030000028,208.69586030000028,0.3067233000001579,40.74074074074075,1.1669455999999627,-0.03148148148148148,-0.37037037037037035,1,0,0,NextBu,47.22222222222222,2.0463141999998697,0.6216620067770443,210.7693589999999,211.39770260000023,,,,,,,,,,,,2023-04-07_22h16.13.324,FaceAttractiveness,2022.2.5,143.1764262881825,
images\LCHEEK_CFD_AF_237_223_N.png,0,38,38,24,,,,,,,,,,,,,,,,,,,,,,,,,,,,,,,,,,,,,,,,211.39770260000023,211.69566960000066,211.69566960000066,211.69566960000066,211.69566960000066,211.69566960000066,0.3075280000002749,45.27777777777778,0.7414012999997794,-0.027777777777777776,-0.39814814814814814,1,0,0,NextBu,47.12962962962963,1.3508136000000377,0.9949053915512506,213.06110249999983,214.0571815000003,,,,,,,,,,,,2023-04-07_22h16.13.324,FaceAttractiveness,2022.2.5,143.1764262881825,
images\LCHEEK_006_M_F_N_A.png,0,39,39,19,,,,,,,,,,,,,,,,,,,,,,,,,,,,,,,,,,,,,,,,214.0571815000003,214.35480800000005,214.35480800000005,214.35480800000005,214.35480800000005,214.35480800000005,0.30635590000019874,40.64814814814815,1.0603881999995792,-0.032407407407407406,-0.4027777777777778,1,0,0,NextBu,41.388888888888886,1.6722278999995979,0.8568962546091861,216.22090209999988,217.08503780000046,,,,,,,,,,,,2023-04-07_22h16.13.324,FaceAttractiveness,2022.2.5,143.1764262881825,
images\NASALTIP_CFD_WF_250_167_N.png,0,40,40,74,,,,,,,,,,,,,,,,,,,,,,,,,,,,,,,,,,,,,,,,217.08503780000046,217.3829923000003,217.3829923000003,217.3829923000003,217.3829923000003,217.3829923000003,0.307229300000472,54.35185185185185,2.0753131000001304,-0.046296296296296294,-0.3972222222222222,1,0,0,NextBu,48.61111111111111,2.713744300000144,0.8560015634467573,220.11746980000044,220.98033310000028,,,,,,,,,,,,2023-04-07_22h16.13.324,FaceAttractiveness,2022.2.5,143.1764262881825,
images\LIP_035_M_F_N_A.png,0,41,41,39,,,,,,,,,,,,,,,,,,,,,,,,,,,,,,,,,,,,,,,,220.98033310000028,221.27875180000046,221.27875180000046,221.27875180000046,221.27875180000046,221.27875180000046,0.3071632999999565,47.12962962962963,12.070840000000317,0.013888888888888888,-0.4388888888888889,1,0,0,NextBu,53.51851851851852,12.976800600000388,0.8146484357846027,234.24820630000067,235.06658200000038,,,,,,,,,,,,2023-04-07_22h16.13.324,FaceAttractiveness,2022.2.5,143.1764262881825,
images\RCHEEK_087_M_M_N_A.png,0,42,42,78,,,,,,,,,,,,,,,,,,,,,,,,,,,,,,,,,,,,,,,,235.06658200000038,235.3620791000003,235.3620791000003,235.3620791000003,235.3620791000003,235.3620791000003,0.30617630000051577,46.85185185185185,0.7452141000003394,-0.004629629629629629,-0.40555555555555556,1,0,0,NextBu,47.31481481481482,1.3141930000001594,0.5610003061818081,236.69249840000066,237.25977390000025,,,,,,,,,,,,2023-04-07_22h16.13.324,FaceAttractiveness,2022.2.5,143.1764262881825,
images\FOREHEAD_CFD_LM_201_057_N.png,0,43,43,13,,,,,,,,,,,,,,,,,,,,,,,,,,,,,,,,,,,,,,,,237.25977390000025,237.55683380000028,237.55683380000028,237.55683380000028,237.55683380000028,237.55683380000028,0.30789110000023356,40.74074074074075,0.8537316000001738,-0.08148148148148149,-0.41759259259259257,1,0,0,NextBu,39.62962962962963,1.4560840000003736,0.5437176247534807,238.96396809999987,239.51640490000045,,,,,,,,,,,,2023-04-07_22h16.13.324,FaceAttractiveness,2022.2.5,143.1764262881825,
images\NASALTIP_CFD_WM_212_097_N.png,0,44,44,75,,,,,,,,,,,,,,,,,,,,,,,,,,,,,,,,,,,,,,,,239.51640490000045,239.81258919999982,239.81258919999982,239.81258919999982,239.81258919999982,239.81258919999982,0.30670939999981783,51.66666666666667,1.7721117999999478,-0.001851851851851852,-0.4101851851851852,1,0,0,NextBu,50.92592592592593,2.3675731000002997,0.5265287174072184,242.16525860000002,242.6954136000004,,,,,,,,,,,,2023-04-07_22h16.13.324,FaceAttractiveness,2022.2.5,143.1764262881825,
images\FOREHEAD_CFD_BM_213_134_N.png,0,45,45,10,,,,,,,,,,,,,,,,,,,,,,,,,,,,,,,,,,,,,,,,242.6954136000004,242.99406530000033,242.99406530000033,242.99406530000033,242.99406530000033,242.99406530000033,0.30759019999914017,49.44444444444444,4.6049198000000615,0.002777777777777778,-0.41574074074074074,1,0,0,NextBu,51.20370370370371,5.124879800000599,0.7147234942028315,248.10306190000028,248.82012660000055,,,,,,,,,,,,2023-04-07_22h16.13.324,FaceAttractiveness,2022.2.5,143.1764262881825,
images\RCHEEK_CFD_BM_213_134_N.png,0,46,46,86,,,,,,,,,,,,,,,,,,,,,,,,,,,,,,,,,,,,,,,,248.82012660000055,249.11799400000018,249.11799400000018,249.11799400000018,249.11799400000018,249.11799400000018,0.3073123000003761,55.74074074074073,1.5634253999996872,0.002777777777777778,-0.4111111111111111,1,0,0,NextBu,51.01851851851852,2.2359116000006907,0.8940260864847179,252.87343959999998,253.77137990000028,,,,,,,,,,,,2023-04-07_22h16.13.324,FaceAttractiveness,2022.2.5,143.1764262881825,
images\NASALTIP_035_M_F_N_A.png,0,47,47,58,,,,,,,,,,,,,,,,,,,,,,,,,,,,,,,,,,,,,,,,253.77137990000028,254.0709136000005,254.0709136000005,254.0709136000005,254.0709136000005,254.0709136000005,0.3087244999996983,49.907407407407405,0.8798826000002009,-0.032407407407407406,-0.4351851851851852,1,0,0,NextBu,49.44444444444444,1.4667545000002065,0.6597118756802738,255.52520710000044,256.18784270000015,,,,,,,,,,,,2023-04-07_22h16.13.324,FaceAttractiveness,2022.2.5,143.1764262881825,
images\FOREHEAD_006_M_F_N_A.png,0,48,48,0,,,,,,,,,,,,,,,,,,,,,,,,,,,,,,,,,,,,,,,,256.18784270000015,256.4857141000002,256.4857141000002,256.4857141000002,256.4857141000002,256.4857141000002,0.30658390000007785,58.14814814814815,1.0311264000001756,-0.012962962962962963,-0.41388888888888886,1,0,0,NextBu,51.20370370370371,1.5746733000005406,0.9930401297488227,257.99088160000065,258.9883305000003,,,,,,,,,,,,2023-04-07_22h16.13.324,FaceAttractiveness,2022.2.5,143.1764262881825,
images\NASALTIP_CFD_LM_201_057_N.png,0,49,49,70,,,,,,,,,,,,,,,,,,,,,,,,,,,,,,,,,,,,,,,,258.9883305000003,259.2850122,259.2850122,259.2850122,259.2850122,259.2850122,0.30765969999993104,56.94444444444444,1.1483507000002646,-0.05555555555555555,-0.4,1,0,0,NextBu,51.20370370370371,1.6983136999997441,0.5534564306198697,260.9217187000004,261.47946630000024,,,,,,,,,,,,2023-04-07_22h16.13.324,FaceAttractiveness,2022.2.5,143.1764262881825,
images\LIP_CFD_AF_231_357_N.png,0,50,50,42,,,,,,,,,,,,,,,,,,,,,,,,,,,,,,,,,,,,,,,,261.47946630000024,261.77822730000025,261.77822730000025,261.77822730000025,261.77822730000025,261.77822730000025,0.30740009999954054,51.2962962962963,0.7465086000001975,0.02962962962962963,-0.4064814814814815,1,0,0,NextBu,58.24074074074074,1.396088399999826,0.6048740786141334,263.21309629999996,263.81980830000066,,,,,,,,,,,,2023-04-07_22h16.13.324,FaceAttractiveness,2022.2.5,143.1764262881825,
images\FOREHEAD_CFD_AF_245_143_N.png,0,51,51,6,,,,,,,,,,,,,,,,,,,,,,,,,,,,,,,,,,,,,,,,263.81980830000066,264.1181096999999,264.1181096999999,264.1181096999999,264.1181096999999,264.1181096999999,0.3071766999992178,38.611111111111114,0.7230478000001312,-0.03518518518518519,-0.3685185185185185,1,0,0,NextBu,46.574074074074076,1.2241885000003094,0.9569359216201263,265.3240392000007,266.2858683000004,,,,,,,,,,,,2023-04-07_22h16.13.324,FaceAttractiveness,2022.2.5,143.1764262881825,
images\LIP_CFD_WM_212_097_N.png,0,52,52,56,,,,,,,,,,,,,,,,,,,,,,,,,,,,,,,,,,,,,,,,266.2858683000004,266.58425739999984,266.58425739999984,266.58425739999984,266.58425739999984,266.58425739999984,0.3079708000004757,48.333333333333336,0.842924800000219,0.010185185185185186,-0.4185185185185185,1,0,0,NextBu,48.888888888888886,1.6777423000003182,0.8369640751250862,268.3175624000005,269.1608200999999,,,,,,,,,,,,2023-04-07_22h16.13.324,FaceAttractiveness,2022.2.5,143.1764262881825,
images\LCHEEK_CFD_BF_214_308_N.png,0,53,53,27,,,,,,,,,,,,,,,,,,,,,,,,,,,,,,,,,,,,,,,,269.1608200999999,269.45887700000003,269.45887700000003,269.45887700000003,269.45887700000003,269.45887700000003,0.3078940999994302,46.85185185185185,0.904598399999486,-0.018518518518518517,-0.387037037037037,1,0,0,NextBu,49.074074074074076,1.4215531999998348,0.7943738987057967,270.8182519000002,271.61970999999994,,,,,,,,,,,,2023-04-07_22h16.13.324,FaceAttractiveness,2022.2.5,143.1764262881825,
images\LIP_CFD_LM_203_026_N.png,0,54,54,52,,,,,,,,,,,,,,,,,,,,,,,,,,,,,,,,,,,,,,,,271.61970999999994,271.9153974999999,271.9153974999999,271.9153974999999,271.9153974999999,271.9153974999999,0.3062467999998262,42.68518518518519,0.8311765000007654,-0.046296296296296294,-0.4287037037037037,1,0,0,NextBu,42.22222222222222,1.4648286999999982,0.6286542004659803,273.38659160000043,274.02246620000005,,,,,,,,,,,,2023-04-07_22h16.13.324,FaceAttractiveness,2022.2.5,143.1764262881825,
images\NASALTIP_136_M_M_N_A.png,0,55,55,60,,,,,,,,,,,,,,,,,,,,,,,,,,,,,,,,,,,,,,,,274.02246620000005,274.3198603999999,274.3198603999999,274.3198603999999,274.3198603999999,274.3198603999999,0.306846399999813,49.44444444444444,0.8662500000000364,-0.021296296296296296,-0.3675925925925926,1,0,0,NextBu,51.48148148148148,1.5828692999994018,0.8917998200439947,275.8513363000002,276.74961820000044,,,,,,,,,,,,2023-04-07_22h16.13.324,FaceAttractiveness,2022.2.5,143.1764262881825,
images\LIP_006_M_F_N_A.png,0,56,56,38,,,,,,,,,,,,,,,,,,,,,,,,,,,,,,,,,,,,,,,,276.74961820000044,277.05175510000026,277.05175510000026,277.05175510000026,277.05175510000026,277.05175510000026,0.3108548999998675,57.870370370370374,0.945701999999983,-0.014814814814814815,-0.375,1,0,0,NextBu,48.7037037037037,1.7234877999999298,0.6662943052375996,278.74757300000056,279.4166337000006,,,,,,,,,,,,2023-04-07_22h16.13.324,FaceAttractiveness,2022.2.5,143.1764262881825,
images\NASALTIP_CFD_BM_234_172_N.png,0,57,57,68,,,,,,,,,,,,,,,,,,,,,,,,,,,,,,,,,,,,,,,,279.4166337000006,279.7151050000002,279.7151050000002,279.7151050000002,279.7151050000002,279.7151050000002,0.30770810000012716,45.46296296296296,0.8396651999992173,-0.03981481481481482,-0.38796296296296295,1,0,0,NextBu,48.888888888888886,1.4705818000002182,0.9583281763776923,281.1362270999998,282.09734650000064,,,,,,,,,,,,2023-04-07_22h16.13.324,FaceAttractiveness,2022.2.5,143.1764262881825,
images\LCHEEK_087_M_M_N_A.png,0,58,58,21,,,,,,,,,,,,,,,,,,,,,,,,,,,,,,,,,,,,,,,,282.09734650000064,282.3960738000005,282.3960738000005,282.3960738000005,282.3960738000005,282.3960738000005,0.308092399999623,43.425925925925924,0.8413929999996981,0.06574074074074074,-0.39444444444444443,1,0,0,NextBu,55.00000000000001,1.7175570999997944,0.6922604123616841,284.0464914000004,284.7429495000006,,,,,,,,,,,,2023-04-07_22h16.13.324,FaceAttractiveness,2022.2.5,143.1764262881825,
images\RCHEEK_006_M_F_N_A.png,0,59,59,76,,,,,,,,,,,,,,,,,,,,,,,,,,,,,,,,,,,,,,,,284.7429495000006,285.04126390000056,285.04126390000056,285.04126390000056,285.04126390000056,285.04126390000056,0.30731180000020686,44.62962962962963,0.8607578000001013,0.016666666666666666,-0.41944444444444445,1,0,0,NextBu,54.44444444444444,1.681857000000491,0.9551489866907269,286.7405765000003,287.70128960000056,,,,,,,,,,,,2023-04-07_22h16.13.324,FaceAttractiveness,2022.2.5,143.1764262881825,
images\FOREHEAD_CFD_AF_231_357_N.png,0,60,60,4,,,,,,,,,,,,,,,,,,,,,,,,,,,,,,,,,,,,,,,,287.70128960000056,287.9931489999999,287.9931489999999,287.9931489999999,287.9931489999999,287.9931489999999,0.3014212999996744,47.96296296296296,1.060287000000244,-0.019444444444444445,-0.42777777777777776,1,0,0,NextBu,53.425925925925924,1.6803097000001799,0.6984458205603905,289.62914980000005,290.3333733999998,,,,,,,,,,,,2023-04-07_22h16.13.324,FaceAttractiveness,2022.2.5,143.1764262881825,
images\NASALTIP_CFD_LM_203_026_N.png,0,61,61,71,,,,,,,,,,,,,,,,,,,,,,,,,,,,,,,,,,,,,,,,290.3333733999998,290.6316310000002,290.6316310000002,290.6316310000002,290.6316310000002,290.6316310000002,0.30760689999988244,44.62962962962963,0.7508718999997654,-0.037037037037037035,-0.425,1,0,0,NextBu,53.148148148148145,1.2900799999997616,0.8246094491925817,291.9209299000004,292.74939650000033,,,,,,,,,,,,2023-04-07_22h16.13.324,FaceAttractiveness,2022.2.5,143.1764262881825,
images\NASALTIP_CFD_AF_231_357_N.png,0,62,62,61,,,,,,,,,,,,,,,,,,,,,,,,,,,,,,,,,,,,,,,,292.74939650000033,293.0479280999998,293.0479280999998,293.0479280999998,293.0479280999998,293.0479280999998,0.30727329999990616,58.611111111111114,0.8372867000007318,0.007407407407407408,-0.40185185185185185,1,0,0,NextBu,51.2962962962963,1.553054400000292,0.8819788129957872,294.5524150000001,295.43729950000034,,,,,,,,,,,,2023-04-07_22h16.13.324,FaceAttractiveness,2022.2.5,143.1764262881825,
images\LIP_CFD_BM_213_134_N.png,0,63,63,48,,,,,,,,,,,,,,,,,,,,,,,,,,,,,,,,,,,,,,,,295.43729950000034,295.7358595000005,295.7358595000005,295.7358595000005,295.7358595000005,295.7358595000005,0.3075619999999617,62.40740740740741,0.9620964999994612,-0.02962962962962963,-0.39351851851851855,1,0,0,NextBu,37.68518518518519,1.6796237999997174,0.5565052989561654,297.43455110000014,297.99286930000017,,,,,,,,,,,,2023-04-07_22h16.13.324,FaceAttractiveness,2022.2.5,143.1764262881825,
images\LCHEEK_CFD_LM_203_026_N.png,0,64,64,33,,,,,,,,,,,,,,,,,,,,,,,,,,,,,,,,,,,,,,,,297.99286930000017,298.29116200000044,298.29116200000044,298.29116200000044,298.29116200000044,298.29116200000044,0.3074986000001445,52.22222222222223,0.8696669000000838,0.012037037037037037,-0.40925925925925927,1,0,0,NextBu,53.24074074074075,1.4636010000003807,0.7334621371425586,299.73437809999996,300.4715326000005,,,,,,,,,,,,2023-04-07_22h16.13.324,FaceAttractiveness,2022.2.5,143.1764262881825,
images\LIP_CFD_AM_233_236_N.png,0,65,65,45,,,,,,,,,,,,,,,,,,,,,,,,,,,,,,,,,,,,,,,,300.4715326000005,300.7708511999999,300.7708511999999,300.7708511999999,300.7708511999999,300.7708511999999,0.30841770000006363,56.481481481481474,1.061908300000141,-0.023148148148148147,-0.4027777777777778,1,0,0,NextBu,43.425925925925924,1.7923122000001968,0.7229299202793185,302.6839791000002,303.4114559999998,,,,,,,,,,,,2023-04-07_22h16.13.324,FaceAttractiveness,2022.2.5,143.1764262881825,
images\FOREHEAD_CFD_BF_214_308_N.png,0,66,66,8,,,,,,,,,,,,,,,,,,,,,,,,,,,,,,,,,,,,,,,,303.4114559999998,303.7076547000006,303.7076547000006,303.7076547000006,303.7076547000006,303.7076547000006,0.30687680000028195,58.333333333333336,1.2880606999997326,-0.014814814814814815,-0.40185185185185185,1,0,0,NextBu,54.25925925925926,1.9387945000007676,0.9841777191594205,305.6077608000005,306.5985737000001,,,,,,,,,,,,2023-04-07_22h16.13.324,FaceAttractiveness,2022.2.5,143.1764262881825,
images\FOREHEAD_136_M_M_N_A.png,0,67,67,3,,,,,,,,,,,,,,,,,,,,,,,,,,,,,,,,,,,,,,,,306.5985737000001,306.8947655000002,306.8947655000002,306.8947655000002,306.8947655000002,306.8947655000002,0.3065353000001778,52.68518518518519,1.0776777000000948,-0.016666666666666666,-0.375,1,0,0,NextBu,46.2962962962963,1.6426836000000549,0.9728709442849692,308.5450050999998,309.51996130000043,,,,,,,,,,,,2023-04-07_22h16.13.324,FaceAttractiveness,2022.2.5,143.1764262881825,
images\LIP_CFD_BF_214_308_N.png,0,68,68,46,,,,,,,,,,,,,,,,,,,,,,,,,,,,,,,,,,,,,,,,309.51996130000043,309.8184344000001,309.8184344000001,309.8184344000001,309.8184344000001,309.8184344000001,0.307354800000212,45.46296296296296,0.8011816999996881,0.001851851851851852,-0.4222222222222222,1,0,0,NextBu,46.48148148148148,1.4207864999998492,0.8907731604769603,311.21979360000023,312.11886779999986,,,,,,,,,,,,2023-04-07_22h16.13.324,FaceAttractiveness,2022.2.5,143.1764262881825,
images\LIP_CFD_WF_002_004_N.png,0,69,69,53,,,,,,,,,,,,,,,,,,,,,,,,,,,,,,,,,,,,,,,,312.11886779999986,312.4162978000004,312.4162978000004,312.4162978000004,312.4162978000004,312.4162978000004,0.30807780000031926,50.27777777777778,0.8663796999999249,-0.03888888888888889,-0.40370370370370373,1,0,0,NextBu,43.611111111111114,1.801060900000266,0.998336871837458,314.23959600000035,315.2433565000001,,,,,,,,,,,,2023-04-07_22h16.13.324,FaceAttractiveness,2022.2.5,143.1764262881825,
images\RCHEEK_CFD_BF_224_002_N.png,0,70,70,85,,,,,,,,,,,,,,,,,,,,,,,,,,,,,,,,,,,,,,,,315.2433565000001,315.5409395000006,315.5409395000006,315.5409395000006,315.5409395000006,315.5409395000006,0.3066711999999825,54.25925925925926,0.7753625999994256,-0.005555555555555556,-0.38425925925925924,1,0,0,NextBu,53.703703703703695,1.3805609999999433,0.9816638100628843,316.9273645000003,317.9157517000003,,,,,,,,,,,,2023-04-07_22h16.13.324,FaceAttractiveness,2022.2.5,143.1764262881825,
images\LCHEEK_CFD_BM_234_172_N.png,0,71,71,30,,,,,,,,,,,,,,,,,,,,,,,,,,,,,,,,,,,,,,,,317.9157517000003,318.2143216000004,318.2143216000004,318.2143216000004,318.2143216000004,318.2143216000004,0.30777780000062194,49.81481481481482,0.7808717999996588,0.022222222222222223,-0.3907407407407407,1,0,0,NextBu,55.55555555555556,1.3509853999994448,0.6109443197950571,319.54453580000063,320.158993,,,,,,,,,,,,2023-04-07_22h16.13.324,FaceAttractiveness,2022.2.5,143.1764262881825,
images\LCHEEK_CFD_AF_231_357_N.png,0,72,72,23,,,,,,,,,,,,,,,,,,,,,,,,,,,,,,,,,,,,,,,,320.158993,320.4575728,320.4575728,320.4575728,320.4575728,320.4575728,0.30809119999958057,50.83333333333333,1.5266170999993847,0.012962962962962963,-0.39537037037037037,1,0,0,NextBu,50.46296296296296,2.366877899999963,0.6767481525232442,322.83808970000064,323.52158190000046,,,,,,,,,,,,2023-04-07_22h16.13.324,FaceAttractiveness,2022.2.5,143.1764262881825,
images\NASALTIP_CFD_BF_214_308_N.png,0,73,73,65,,,,,,,,,,,,,,,,,,,,,,,,,,,,,,,,,,,,,,,,323.52158190000046,323.8179527000002,323.8179527000002,323.8179527000002,323.8179527000002,323.8179527000002,0.30749029999969935,45.27777777777778,0.8297130999999354,-0.03425925925925926,-0.3907407407407407,1,0,0,NextBu,46.574074074074076,1.3652015999996365,0.8707834056526613,325.14281610000035,326.0203360000005,,,,,,,,,,,,2023-04-07_22h16.13.324,FaceAttractiveness,2022.2.5,143.1764262881825,
images\RCHEEK_CFD_WF_200_099_N.png,0,74,74,92,,,,,,,,,,,,,,,,,,,,,,,,,,,,,,,,,,,,,,,,326.0203360000005,326.31815220000044,326.31815220000044,326.31815220000044,326.31815220000044,326.31815220000044,0.3073918000000049,51.94444444444445,2.0710220000000845,-0.030555555555555555,-0.40185185185185185,1,0,0,NextBu,47.31481481481482,2.623208799999702,0.541263937370505,328.93348740000056,329.47854330000064,,,,,,,,,,,,2023-04-07_22h16.13.324,FaceAttractiveness,2022.2.5,143.1764262881825,
images\LCHEEK_CFD_AF_245_143_N.png,0,75,75,25,,,,,,,,,,,,,,,,,,,,,,,,,,,,,,,,,,,,,,,,329.47854330000064,329.7782883,329.7782883,329.7782883,329.7782883,329.7782883,0.3089951000001747,56.481481481481474,1.5734118000000308,-0.06388888888888888,-0.42592592592592593,1,0,0,NextBu,42.592592592592595,2.199712399999953,0.7310051246087057,331.94077130000005,332.6806497000007,,,,,,,,,,,,2023-04-07_22h16.13.324,FaceAttractiveness,2022.2.5,143.1764262881825,
images\FOREHEAD_CFD_BF_224_002_N.png,0,76,76,9,,,,,,,,,,,,,,,,,,,,,,,,,,,,,,,,,,,,,,,,332.6806497000007,332.97743739999987,332.97743739999987,332.97743739999987,332.97743739999987,332.97743739999987,0.30714829999942594,51.2962962962963,0.939870900000642,-0.041666666666666664,-0.4203703703703704,1,0,0,NextBu,43.148148148148145,1.5375246000003244,0.7578829659228825,334.4608435,335.2207994999999,,,,,,,,,,,,2023-04-07_22h16.13.324,FaceAttractiveness,2022.2.5,143.1764262881825,
images\RCHEEK_CFD_WF_250_167_N.png,0,77,77,93,,,,,,,,,,,,,,,,,,,,,,,,,,,,,,,,,,,,,,,,335.2207994999999,335.5189035000003,335.5189035000003,335.5189035000003,335.5189035000003,335.5189035000003,0.3074987999998484,55.18518518518518,1.2195940999999948,-0.03425925925925926,-0.4212962962962963,1,0,0,NextBu,47.592592592592595,1.775957699999708,0.9205955158557945,337.2393560999999,338.16572129999986,,,,,,,,,,,,2023-04-07_22h16.13.324,FaceAttractiveness,2022.2.5,143.1764262881825,
images\RCHEEK_CFD_AF_231_357_N.png,0,78,78,80,,,,,,,,,,,,,,,,,,,,,,,,,,,,,,,,,,,,,,,,338.16572129999986,338.4641644000003,338.4641644000003,338.4641644000003,338.4641644000003,338.4641644000003,0.30788510000002134,65.18518518518519,0.8851308999992398,-0.025,-0.4027777777777778,1,0,0,NextBu,52.129629629629626,1.4104182000000947,0.5258056770931905,340.7458443000005,341.2779594000003,,,,,,,,,,,,2023-04-07_22h16.13.324,FaceAttractiveness,2022.2.5,143.1764262881825,
images\NASALTIP_006_M_F_N_A.png,0,79,79,57,,,,,,,,,,,,,,,,,,,,,,,,,,,,,,,,,,,,,,,,341.2779594000003,341.5742287000003,341.5742287000003,341.5742287000003,341.5742287000003,341.5742287000003,0.3068200000006982,62.77777777777778,1.370568800000001,0.017592592592592594,-0.40185185185185185,1,0,0,NextBu,56.018518518518526,1.9773719000004348,0.98282845450087,343.5242984000006,344.51394250000067,,,,,,,,,,,,2023-04-07_22h16.13.324,FaceAttractiveness,2022.2.5,143.1764262881825,
images\FOREHEAD_CFD_WF_250_167_N.png,0,80,80,17,,,,,,,,,,,,,,,,,,,,,,,,,,,,,,,,,,,,,,,,344.51394250000067,344.81156830000054,344.81156830000054,344.81156830000054,344.81156830000054,344.81156830000054,0.3076568000005864,66.2037037037037,0.8394206999992093,0.016666666666666666,-0.38425925925925924,1,0,0,NextBu,54.25925925925926,1.4777464999997392,0.787122657062993,346.25964530000056,347.0539294,,,,,,,,,,,,2023-04-07_22h16.13.324,FaceAttractiveness,2022.2.5,143.1764262881825,
images\LCHEEK_136_M_M_N_A.png,0,81,81,22,,,,,,,,,,,,,,,,,,,,,,,,,,,,,,,,,,,,,,,,347.0539294,347.3520701000007,347.3520701000007,347.3520701000007,347.3520701000007,347.3520701000007,0.3070252999996228,63.7962962962963,1.2608956000003673,0.046296296296296294,-0.42592592592592593,1,0,0,NextBu,56.388888888888886,1.8483013999994,0.6659038738889652,349.1837316000001,349.8534110999999,,,,,,,,,,,,2023-04-07_22h16.13.324,FaceAttractiveness,2022.2.5,143.1764262881825,
images\NASALTIP_CFD_WF_200_099_N.png,0,82,82,73,,,,,,,,,,,,,,,,,,,,,,,,,,,,,,,,,,,,,,,,349.8534110999999,350.1441891000004,350.1441891000004,350.1441891000004,350.1441891000004,350.1441891000004,0.30092160000003787,67.12962962962963,1.282578199999989,0.03425925925925926,-0.42592592592592593,1,0,0,NextBu,55.18518518518518,1.8937607999996544,0.7263535300269837,352.00934640000014,352.7418710000002,,,,,,,,,,,,2023-04-07_22h16.13.324,FaceAttractiveness,2022.2.5,143.1764262881825,
images\FOREHEAD_CFD_AM_233_236_N.png,0,83,83,7,,,,,,,,,,,,,,,,,,,,,,,,,,,,,,,,,,,,,,,,352.7418710000002,353.0393088999999,353.0393088999999,353.0393088999999,353.0393088999999,353.0393088999999,0.30672020000019984,60.18518518518518,2.165210900000602,-0.025925925925925925,-0.3824074074074074,1,0,0,NextBu,40.925925925925924,2.9143371000000116,0.8357957070627462,356.0232536000003,356.8663129000006,,,,,,,,,,,,2023-04-07_22h16.13.324,FaceAttractiveness,2022.2.5,143.1764262881825,
images\FOREHEAD_035_M_F_N_A.png,0,84,84,1,,,,,,,,,,,,,,,,,,,,,,,,,,,,,,,,,,,,,,,,356.8663129000006,357.16479530000015,357.16479530000015,357.16479530000015,357.16479530000015,357.16479530000015,0.3075401999994938,59.44444444444444,1.5542588999996951,-0.010185185185185186,-0.42592592592592593,1,0,0,NextBu,49.81481481481482,2.302076799999668,0.687408937214085,359.5093260000003,360.2018668999999,,,,,,,,,,,,2023-04-07_22h16.13.324,FaceAttractiveness,2022.2.5,143.1764262881825,
images\LIP_CFD_BF_224_002_N.png,0,85,85,47,,,,,,,,,,,,,,,,,,,,,,,,,,,,,,,,,,,,,,,,360.2018668999999,360.4973847000001,360.4973847000001,360.4973847000001,360.4973847000001,360.4973847000001,0.3066840000001321,67.4074074074074,1.2809922000005827,-0.03333333333333333,-0.3851851851851852,1,0,0,NextBu,50.83333333333333,1.8003570999999283,0.616699848355123,362.2245211999998,362.8457550000003,,,,,,,,,,,,2023-04-07_22h16.13.324,FaceAttractiveness,2022.2.5,143.1764262881825,
images\NASALTIP_CFD_WF_002_004_N.png,0,86,86,72,,,,,,,,,,,,,,,,,,,,,,,,,,,,,,,,,,,,,,,,362.8457550000003,363.1433766,363.1433766,363.1433766,363.1433766,363.1433766,0.3068520000006174,43.05555555555556,1.1525334000007206,-0.08888888888888889,-0.4203703703703704,1,0,0,NextBu,36.01851851851852,1.7409483999999793,0.8909656536329078,365.23946650000016,366.1371952999998,,,,,,,,,,,,2023-04-07_22h16.13.324,FaceAttractiveness,2022.2.5,143.1764262881825,
images\LIP_CFD_LF_224_176_N.png,0,87,87,50,,,,,,,,,,,,,,,,,,,,,,,,,,,,,,,,,,,,,,,,366.1371952999998,366.43541000000005,366.43541000000005,366.43541000000005,366.43541000000005,366.43541000000005,0.3072092000002158,49.166666666666664,0.760551200000009,0.012037037037037037,-0.4287037037037037,1,0,0,NextBu,51.2962962962963,1.3252909000002546,0.6467076865557639,367.80063990000053,368.4494411000005,,,,,,,,,,,,2023-04-07_22h16.13.324,FaceAttractiveness,2022.2.5,143.1764262881825,
images\RCHEEK_CFD_AF_237_223_N.png,0,88,88,81,,,,,,,,,,,,,,,,,,,,,,,,,,,,,,,,,,,,,,,,368.4494411000005,368.74714010000025,368.74714010000025,368.74714010000025,368.74714010000025,368.74714010000025,0.3065160999994987,59.81481481481481,1.901524299999437,-0.062037037037037036,-0.3990740740740741,1,0,0,NextBu,48.333333333333336,2.6225437000002785,0.893345201597354,371.3843588,372.2827965000006,,,,,,,,,,,,2023-04-07_22h16.13.324,FaceAttractiveness,2022.2.5,143.1764262881825,
images\FOREHEAD_CFD_AF_237_223_N.png,0,89,89,5,,,,,,,,,,,,,,,,,,,,,,,,,,,,,,,,,,,,,,,,372.2827965000006,372.58059140000023,372.58059140000023,372.58059140000023,372.58059140000023,372.58059140000023,0.30750630000056844,57.870370370370374,1.1642988000003243,-0.040740740740740744,-0.40185185185185185,1,0,0,NextBu,43.425925925925924,1.8396218999996563,0.5427196968495132,374.38447129999986,374.92834440000024,,,,,,,,,,,,2023-04-07_22h16.13.324,FaceAttractiveness,2022.2.5,143.1764262881825,
images\RCHEEK_CFD_LM_203_026_N.png,0,90,90,90,,,,,,,,,,,,,,,,,,,,,,,,,,,,,,,,,,,,,,,,374.92834440000024,375.2267763,375.2267763,375.2267763,375.2267763,375.2267763,0.3070914999998422,69.81481481481482,1.603010599999834,-0.037037037037037035,-0.4111111111111111,1,0,0,NextBu,49.074074074074076,2.1021952999999485,0.7502832260526301,377.3216730000004,378.07413410000026,,,,,,,,,,,,2023-04-07_22h16.13.324,FaceAttractiveness,2022.2.5,143.1764262881825,
images\RCHEEK_CFD_AM_233_236_N.png,0,91,91,83,,,,,,,,,,,,,,,,,,,,,,,,,,,,,,,,,,,,,,,,378.07413410000026,378.3727985000005,378.3727985000005,378.3727985000005,378.3727985000005,378.3727985000005,0.3077606000006199,53.05555555555556,1.2654249999995955,-0.037037037037037035,-0.42314814814814816,1,0,0,NextBu,38.51851851851852,1.886551700000382,0.7201946831179982,380.39790859999994,381.12268810000023,,,,,,,,,,,,2023-04-07_22h16.13.324,FaceAttractiveness,2022.2.5,143.1764262881825,
images\RCHEEK_CFD_BM_234_172_N.png,0,92,92,87,,,,,,,,,,,,,,,,,,,,,,,,,,,,,,,,,,,,,,,,381.12268810000023,381.4219238000005,381.4219238000005,381.4219238000005,381.4219238000005,381.4219238000005,0.3081672999996954,55.833333333333336,0.9563312000000224,-0.006481481481481481,-0.4111111111111111,1,0,0,NextBu,44.53703703703704,1.5785696000002645,0.5084582977796268,383.0090184999999,383.52527830000054,,,,,,,,,,,,2023-04-07_22h16.13.324,FaceAttractiveness,2022.2.5,143.1764262881825,
images\LIP_CFD_AF_237_223_N.png,0,93,93,43,,,,,,,,,,,,,,,,,,,,,,,,,,,,,,,,,,,,,,,,383.52527830000054,383.82265540000026,383.82265540000026,383.82265540000026,383.82265540000026,383.82265540000026,0.2993590999994922,60.27777777777777,0.9611971000003905,0.014814814814814815,-0.42314814814814816,1,0,0,NextBu,51.94444444444445,1.712586000000556,0.8530461782970792,386.9949415000001,387.8519031000005,,,,,,,,,,,,2023-04-07_22h16.13.324,FaceAttractiveness,2022.2.5,143.1764262881825,
images\LIP_CFD_AF_245_143_N.png,0,94,94,44,,,,,,,,,,,,,,,,,,,,,,,,,,,,,,,,,,,,,,,,387.8519031000005,388.1499739000001,388.1499739000001,388.1499739000001,388.1499739000001,388.1499739000001,0.30724259999988135,42.31481481481482,2.6977381999995487,0.053703703703703705,-0.3925925925925926,1,0,0,NextBu,54.907407407407405,4.042498400000113,0.5576892836678994,392.31445130000066,392.8851742000006,,,,,,,,,,,,2023-04-07_22h16.13.324,FaceAttractiveness,2022.2.5,143.1764262881825,
,,,,,,,,,,,,,,,,,,,,,,,,,,,,,,,,,,,,,,,,,,,,,,,,,,,,,,,,,,,,,,,,392.8851742000006,393.18605620000017,393.18605620000017,393.18605620000017,393.18605620000017,393.18605620000017,0.3153509000003396,,,,,,,,,
