faceImages,faceImages_q,originalFaceTrials.thisRepN,originalFaceTrials.thisTrialN,originalFaceTrials.thisN,originalFaceTrials.thisIndex,faceQuestions.thisRepN,faceQuestions.thisTrialN,faceQuestions.thisN,faceQuestions.thisIndex,ques_instr.started,mouse_4.started,mouse_4.x,mouse_4.y,mouse_4.leftButton,mouse_4.midButton,mouse_4.rightButton,mouse_4.time,mouse_4.clicked_name,slider_rad_therapy.started,text_rad_therapy.started,slider_surgery.started,text_surgery.started,image.started,mouse_6.started,slider_rad_therapy.response,slider_rad_therapy.rt,slider_surgery.response,slider_surgery.rt,mouse_6.x,mouse_6.y,mouse_6.leftButton,mouse_6.midButton,mouse_6.rightButton,mouse_6.time,mouse_6.clicked_name,instrBlock.started,mouse.started,mouse.x,mouse.y,mouse.leftButton,mouse.midButton,mouse.rightButton,mouse.clicked_name,face_image_q.started,slider_trustworthy.started,text_trustworthy.started,slider_aggressive.started,text_aggressive.started,Confirm.started,mouse_7.started,slider_trustworthy.response,slider_trustworthy.rt,slider_aggressive.response,slider_aggressive.rt,mouse_7.x,mouse_7.y,mouse_7.leftButton,mouse_7.midButton,mouse_7.rightButton,mouse_7.time,mouse_7.clicked_name,ITI,text_2.started,text_2.stopped,EndText.started,mouse_8.started,mouse_8.x,mouse_8.y,mouse_8.leftButton,mouse_8.midButton,mouse_8.rightButton,mouse_8.time,mouse_8.clicked_name,Name,Gender,Age,Ethnicity,date,expName,psychopyVersion,frameRate,
,,,,,,,,,,7.667641699999876,0.5010255999986839,[-0.011111111111111112],[0.027777777777777776],[1],[0],[0],[1.181680800000322],['ques_instr'],,,,,,,,,,,,,,,,,,,,,,,,,,,,,,,,,,,,,,,,,,,,,,,,,,,,,,,,,,,,2023-04-07_23h28.24.110,FaceAttractiveness,2022.2.5,144.6845081922331,
,,,,,,,,,,,,,,,,,,,9.393214100000478,9.393214100000478,9.393214100000478,9.393214100000478,9.393214100000478,0.0018219000012322795,None,None,None,None,[0.6972222222222222],[-0.41759259259259257],[1],[0],[0],[0.9984107999989646],['image'],,,,,,,,,,,,,,,,,,,,,,,,,,,,,,,,,,,,,,,,,,,2023-04-07_23h28.24.110,FaceAttractiveness,2022.2.5,144.6845081922331,
,,,,,,,,,,,,,,,,,,,,,,,,,,,,,,,,,,,,10.368706600000223,0.5033760999995138,0.053703703703703705,0.049074074074074076,1,0,0,instrBlock,,,,,,,,,,,,,,,,,,,,,,,,,,,,,,,,,,,2023-04-07_23h28.24.110,FaceAttractiveness,2022.2.5,144.6845081922331,
images\FOREHEAD_CFD_LM_203_026_N.png,,0,0,0,14,,,,,,,,,,,,,,,,,,,,,,,,,,,,,,,,,,,,,,,,,,,,,,,,,,,,,,,,,,,,,,,,,,,,,,,,,2023-04-07_23h28.24.110,FaceAttractiveness,2022.2.5,144.6845081922331,
images\LCHEEK_CFD_WF_002_004_N.png,,0,1,1,34,,,,,,,,,,,,,,,,,,,,,,,,,,,,,,,,,,,,,,,,,,,,,,,,,,,,,,,,,,,,,,,,,,,,,,,,,2023-04-07_23h28.24.110,FaceAttractiveness,2022.2.5,144.6845081922331,
images\FOREHEAD_035_M_F_N_A.png,,0,2,2,1,,,,,,,,,,,,,,,,,,,,,,,,,,,,,,,,,,,,,,,,,,,,,,,,,,,,,,,,,,,,,,,,,,,,,,,,,2023-04-07_23h28.24.110,FaceAttractiveness,2022.2.5,144.6845081922331,
images\LCHEEK_CFD_WM_212_097_N.png,,0,3,3,37,,,,,,,,,,,,,,,,,,,,,,,,,,,,,,,,,,,,,,,,,,,,,,,,,,,,,,,,,,,,,,,,,,,,,,,,,2023-04-07_23h28.24.110,FaceAttractiveness,2022.2.5,144.6845081922331,
images\LIP_136_M_M_N_A.png,,0,4,4,41,,,,,,,,,,,,,,,,,,,,,,,,,,,,,,,,,,,,,,,,,,,,,,,,,,,,,,,,,,,,,,,,,,,,,,,,,2023-04-07_23h28.24.110,FaceAttractiveness,2022.2.5,144.6845081922331,
images\RCHEEK_CFD_LF_224_176_N.png,,0,5,5,88,,,,,,,,,,,,,,,,,,,,,,,,,,,,,,,,,,,,,,,,,,,,,,,,,,,,,,,,,,,,,,,,,,,,,,,,,2023-04-07_23h28.24.110,FaceAttractiveness,2022.2.5,144.6845081922331,
images\RCHEEK_CFD_WF_002_004_N.png,,0,6,6,91,,,,,,,,,,,,,,,,,,,,,,,,,,,,,,,,,,,,,,,,,,,,,,,,,,,,,,,,,,,,,,,,,,,,,,,,,2023-04-07_23h28.24.110,FaceAttractiveness,2022.2.5,144.6845081922331,
images\NASALTIP_CFD_LM_203_026_N.png,,0,7,7,71,,,,,,,,,,,,,,,,,,,,,,,,,,,,,,,,,,,,,,,,,,,,,,,,,,,,,,,,,,,,,,,,,,,,,,,,,2023-04-07_23h28.24.110,FaceAttractiveness,2022.2.5,144.6845081922331,
images\LCHEEK_CFD_BF_214_308_N.png,,0,8,8,27,,,,,,,,,,,,,,,,,,,,,,,,,,,,,,,,,,,,,,,,,,,,,,,,,,,,,,,,,,,,,,,,,,,,,,,,,2023-04-07_23h28.24.110,FaceAttractiveness,2022.2.5,144.6845081922331,
images\LCHEEK_CFD_WF_200_099_N.png,,0,9,9,35,,,,,,,,,,,,,,,,,,,,,,,,,,,,,,,,,,,,,,,,,,,,,,,,,,,,,,,,,,,,,,,,,,,,,,,,,2023-04-07_23h28.24.110,FaceAttractiveness,2022.2.5,144.6845081922331,
images\NASALTIP_CFD_LM_201_057_N.png,,0,10,10,70,,,,,,,,,,,,,,,,,,,,,,,,,,,,,,,,,,,,,,,,,,,,,,,,,,,,,,,,,,,,,,,,,,,,,,,,,2023-04-07_23h28.24.110,FaceAttractiveness,2022.2.5,144.6845081922331,
images\FOREHEAD_CFD_AM_233_236_N.png,,0,11,11,7,,,,,,,,,,,,,,,,,,,,,,,,,,,,,,,,,,,,,,,,,,,,,,,,,,,,,,,,,,,,,,,,,,,,,,,,,2023-04-07_23h28.24.110,FaceAttractiveness,2022.2.5,144.6845081922331,
images\RCHEEK_CFD_BM_213_134_N.png,,0,12,12,86,,,,,,,,,,,,,,,,,,,,,,,,,,,,,,,,,,,,,,,,,,,,,,,,,,,,,,,,,,,,,,,,,,,,,,,,,2023-04-07_23h28.24.110,FaceAttractiveness,2022.2.5,144.6845081922331,
images\LCHEEK_006_M_F_N_A.png,,0,13,13,19,,,,,,,,,,,,,,,,,,,,,,,,,,,,,,,,,,,,,,,,,,,,,,,,,,,,,,,,,,,,,,,,,,,,,,,,,2023-04-07_23h28.24.110,FaceAttractiveness,2022.2.5,144.6845081922331,
images\FOREHEAD_CFD_BM_213_134_N.png,,0,14,14,10,,,,,,,,,,,,,,,,,,,,,,,,,,,,,,,,,,,,,,,,,,,,,,,,,,,,,,,,,,,,,,,,,,,,,,,,,2023-04-07_23h28.24.110,FaceAttractiveness,2022.2.5,144.6845081922331,
images\NASALTIP_136_M_M_N_A.png,,0,15,15,60,,,,,,,,,,,,,,,,,,,,,,,,,,,,,,,,,,,,,,,,,,,,,,,,,,,,,,,,,,,,,,,,,,,,,,,,,2023-04-07_23h28.24.110,FaceAttractiveness,2022.2.5,144.6845081922331,
images\RCHEEK_CFD_BM_234_172_N.png,,0,16,16,87,,,,,,,,,,,,,,,,,,,,,,,,,,,,,,,,,,,,,,,,,,,,,,,,,,,,,,,,,,,,,,,,,,,,,,,,,2023-04-07_23h28.24.110,FaceAttractiveness,2022.2.5,144.6845081922331,
images\LCHEEK_CFD_LM_203_026_N.png,,0,17,17,33,,,,,,,,,,,,,,,,,,,,,,,,,,,,,,,,,,,,,,,,,,,,,,,,,,,,,,,,,,,,,,,,,,,,,,,,,2023-04-07_23h28.24.110,FaceAttractiveness,2022.2.5,144.6845081922331,
images\RCHEEK_006_M_F_N_A.png,,0,18,18,76,,,,,,,,,,,,,,,,,,,,,,,,,,,,,,,,,,,,,,,,,,,,,,,,,,,,,,,,,,,,,,,,,,,,,,,,,2023-04-07_23h28.24.110,FaceAttractiveness,2022.2.5,144.6845081922331,
images\RCHEEK_CFD_BF_214_308_N.png,,0,19,19,84,,,,,,,,,,,,,,,,,,,,,,,,,,,,,,,,,,,,,,,,,,,,,,,,,,,,,,,,,,,,,,,,,,,,,,,,,2023-04-07_23h28.24.110,FaceAttractiveness,2022.2.5,144.6845081922331,
images\LIP_CFD_LM_203_026_N.png,,0,20,20,52,,,,,,,,,,,,,,,,,,,,,,,,,,,,,,,,,,,,,,,,,,,,,,,,,,,,,,,,,,,,,,,,,,,,,,,,,2023-04-07_23h28.24.110,FaceAttractiveness,2022.2.5,144.6845081922331,
images\NASALTIP_CFD_BM_234_172_N.png,,0,21,21,68,,,,,,,,,,,,,,,,,,,,,,,,,,,,,,,,,,,,,,,,,,,,,,,,,,,,,,,,,,,,,,,,,,,,,,,,,2023-04-07_23h28.24.110,FaceAttractiveness,2022.2.5,144.6845081922331,
images\LCHEEK_CFD_AM_233_236_N.png,,0,22,22,26,,,,,,,,,,,,,,,,,,,,,,,,,,,,,,,,,,,,,,,,,,,,,,,,,,,,,,,,,,,,,,,,,,,,,,,,,2023-04-07_23h28.24.110,FaceAttractiveness,2022.2.5,144.6845081922331,
images\NASALTIP_CFD_AF_237_223_N.png,,0,23,23,62,,,,,,,,,,,,,,,,,,,,,,,,,,,,,,,,,,,,,,,,,,,,,,,,,,,,,,,,,,,,,,,,,,,,,,,,,2023-04-07_23h28.24.110,FaceAttractiveness,2022.2.5,144.6845081922331,
images\FOREHEAD_CFD_AF_231_357_N.png,,0,24,24,4,,,,,,,,,,,,,,,,,,,,,,,,,,,,,,,,,,,,,,,,,,,,,,,,,,,,,,,,,,,,,,,,,,,,,,,,,2023-04-07_23h28.24.110,FaceAttractiveness,2022.2.5,144.6845081922331,
images\RCHEEK_CFD_BF_224_002_N.png,,0,25,25,85,,,,,,,,,,,,,,,,,,,,,,,,,,,,,,,,,,,,,,,,,,,,,,,,,,,,,,,,,,,,,,,,,,,,,,,,,2023-04-07_23h28.24.110,FaceAttractiveness,2022.2.5,144.6845081922331,
images\LCHEEK_CFD_LF_224_176_N.png,,0,26,26,31,,,,,,,,,,,,,,,,,,,,,,,,,,,,,,,,,,,,,,,,,,,,,,,,,,,,,,,,,,,,,,,,,,,,,,,,,2023-04-07_23h28.24.110,FaceAttractiveness,2022.2.5,144.6845081922331,
images\LIP_CFD_BF_214_308_N.png,,0,27,27,46,,,,,,,,,,,,,,,,,,,,,,,,,,,,,,,,,,,,,,,,,,,,,,,,,,,,,,,,,,,,,,,,,,,,,,,,,2023-04-07_23h28.24.110,FaceAttractiveness,2022.2.5,144.6845081922331,
images\LIP_035_M_F_N_A.png,,0,28,28,39,,,,,,,,,,,,,,,,,,,,,,,,,,,,,,,,,,,,,,,,,,,,,,,,,,,,,,,,,,,,,,,,,,,,,,,,,2023-04-07_23h28.24.110,FaceAttractiveness,2022.2.5,144.6845081922331,
images\LCHEEK_035_M_F_N_A.png,,0,29,29,20,,,,,,,,,,,,,,,,,,,,,,,,,,,,,,,,,,,,,,,,,,,,,,,,,,,,,,,,,,,,,,,,,,,,,,,,,2023-04-07_23h28.24.110,FaceAttractiveness,2022.2.5,144.6845081922331,
images\NASALTIP_CFD_WF_250_167_N.png,,0,30,30,74,,,,,,,,,,,,,,,,,,,,,,,,,,,,,,,,,,,,,,,,,,,,,,,,,,,,,,,,,,,,,,,,,,,,,,,,,2023-04-07_23h28.24.110,FaceAttractiveness,2022.2.5,144.6845081922331,
images\RCHEEK_CFD_WF_250_167_N.png,,0,31,31,93,,,,,,,,,,,,,,,,,,,,,,,,,,,,,,,,,,,,,,,,,,,,,,,,,,,,,,,,,,,,,,,,,,,,,,,,,2023-04-07_23h28.24.110,FaceAttractiveness,2022.2.5,144.6845081922331,
images\LIP_CFD_BM_213_134_N.png,,0,32,32,48,,,,,,,,,,,,,,,,,,,,,,,,,,,,,,,,,,,,,,,,,,,,,,,,,,,,,,,,,,,,,,,,,,,,,,,,,2023-04-07_23h28.24.110,FaceAttractiveness,2022.2.5,144.6845081922331,
images\RCHEEK_087_M_M_N_A.png,,0,33,33,78,,,,,,,,,,,,,,,,,,,,,,,,,,,,,,,,,,,,,,,,,,,,,,,,,,,,,,,,,,,,,,,,,,,,,,,,,2023-04-07_23h28.24.110,FaceAttractiveness,2022.2.5,144.6845081922331,
images\RCHEEK_CFD_AF_245_143_N.png,,0,34,34,82,,,,,,,,,,,,,,,,,,,,,,,,,,,,,,,,,,,,,,,,,,,,,,,,,,,,,,,,,,,,,,,,,,,,,,,,,2023-04-07_23h28.24.110,FaceAttractiveness,2022.2.5,144.6845081922331,
images\NASALTIP_CFD_BF_214_308_N.png,,0,35,35,65,,,,,,,,,,,,,,,,,,,,,,,,,,,,,,,,,,,,,,,,,,,,,,,,,,,,,,,,,,,,,,,,,,,,,,,,,2023-04-07_23h28.24.110,FaceAttractiveness,2022.2.5,144.6845081922331,
images\FOREHEAD_CFD_WM_212_097_N.png,,0,36,36,18,,,,,,,,,,,,,,,,,,,,,,,,,,,,,,,,,,,,,,,,,,,,,,,,,,,,,,,,,,,,,,,,,,,,,,,,,2023-04-07_23h28.24.110,FaceAttractiveness,2022.2.5,144.6845081922331,
images\FOREHEAD_CFD_BF_224_002_N.png,,0,37,37,9,,,,,,,,,,,,,,,,,,,,,,,,,,,,,,,,,,,,,,,,,,,,,,,,,,,,,,,,,,,,,,,,,,,,,,,,,2023-04-07_23h28.24.110,FaceAttractiveness,2022.2.5,144.6845081922331,
images\FOREHEAD_CFD_WF_250_167_N.png,,0,38,38,17,,,,,,,,,,,,,,,,,,,,,,,,,,,,,,,,,,,,,,,,,,,,,,,,,,,,,,,,,,,,,,,,,,,,,,,,,2023-04-07_23h28.24.110,FaceAttractiveness,2022.2.5,144.6845081922331,
images\LIP_CFD_LF_224_176_N.png,,0,39,39,50,,,,,,,,,,,,,,,,,,,,,,,,,,,,,,,,,,,,,,,,,,,,,,,,,,,,,,,,,,,,,,,,,,,,,,,,,2023-04-07_23h28.24.110,FaceAttractiveness,2022.2.5,144.6845081922331,
images\LIP_CFD_LM_201_057_N.png,,0,40,40,51,,,,,,,,,,,,,,,,,,,,,,,,,,,,,,,,,,,,,,,,,,,,,,,,,,,,,,,,,,,,,,,,,,,,,,,,,2023-04-07_23h28.24.110,FaceAttractiveness,2022.2.5,144.6845081922331,
images\LCHEEK_CFD_WF_250_167_N.png,,0,41,41,36,,,,,,,,,,,,,,,,,,,,,,,,,,,,,,,,,,,,,,,,,,,,,,,,,,,,,,,,,,,,,,,,,,,,,,,,,2023-04-07_23h28.24.110,FaceAttractiveness,2022.2.5,144.6845081922331,
images\RCHEEK_CFD_LM_201_057_N.png,,0,42,42,89,,,,,,,,,,,,,,,,,,,,,,,,,,,,,,,,,,,,,,,,,,,,,,,,,,,,,,,,,,,,,,,,,,,,,,,,,2023-04-07_23h28.24.110,FaceAttractiveness,2022.2.5,144.6845081922331,
images\NASALTIP_CFD_AF_245_143_N.png,,0,43,43,63,,,,,,,,,,,,,,,,,,,,,,,,,,,,,,,,,,,,,,,,,,,,,,,,,,,,,,,,,,,,,,,,,,,,,,,,,2023-04-07_23h28.24.110,FaceAttractiveness,2022.2.5,144.6845081922331,
images\LCHEEK_CFD_BF_224_002_N.png,,0,44,44,28,,,,,,,,,,,,,,,,,,,,,,,,,,,,,,,,,,,,,,,,,,,,,,,,,,,,,,,,,,,,,,,,,,,,,,,,,2023-04-07_23h28.24.110,FaceAttractiveness,2022.2.5,144.6845081922331,
images\RCHEEK_CFD_LM_203_026_N.png,,0,45,45,90,,,,,,,,,,,,,,,,,,,,,,,,,,,,,,,,,,,,,,,,,,,,,,,,,,,,,,,,,,,,,,,,,,,,,,,,,2023-04-07_23h28.24.110,FaceAttractiveness,2022.2.5,144.6845081922331,
images\LCHEEK_CFD_AF_237_223_N.png,,0,46,46,24,,,,,,,,,,,,,,,,,,,,,,,,,,,,,,,,,,,,,,,,,,,,,,,,,,,,,,,,,,,,,,,,,,,,,,,,,2023-04-07_23h28.24.110,FaceAttractiveness,2022.2.5,144.6845081922331,
images\FOREHEAD_006_M_F_N_A.png,,0,47,47,0,,,,,,,,,,,,,,,,,,,,,,,,,,,,,,,,,,,,,,,,,,,,,,,,,,,,,,,,,,,,,,,,,,,,,,,,,2023-04-07_23h28.24.110,FaceAttractiveness,2022.2.5,144.6845081922331,
images\LCHEEK_CFD_AF_245_143_N.png,,0,48,48,25,,,,,,,,,,,,,,,,,,,,,,,,,,,,,,,,,,,,,,,,,,,,,,,,,,,,,,,,,,,,,,,,,,,,,,,,,2023-04-07_23h28.24.110,FaceAttractiveness,2022.2.5,144.6845081922331,
images\RCHEEK_CFD_WM_212_097_N.png,,0,49,49,94,,,,,,,,,,,,,,,,,,,,,,,,,,,,,,,,,,,,,,,,,,,,,,,,,,,,,,,,,,,,,,,,,,,,,,,,,2023-04-07_23h28.24.110,FaceAttractiveness,2022.2.5,144.6845081922331,
images\NASALTIP_035_M_F_N_A.png,,0,50,50,58,,,,,,,,,,,,,,,,,,,,,,,,,,,,,,,,,,,,,,,,,,,,,,,,,,,,,,,,,,,,,,,,,,,,,,,,,2023-04-07_23h28.24.110,FaceAttractiveness,2022.2.5,144.6845081922331,
images\LCHEEK_CFD_BM_213_134_N.png,,0,51,51,29,,,,,,,,,,,,,,,,,,,,,,,,,,,,,,,,,,,,,,,,,,,,,,,,,,,,,,,,,,,,,,,,,,,,,,,,,2023-04-07_23h28.24.110,FaceAttractiveness,2022.2.5,144.6845081922331,
images\NASALTIP_CFD_WM_212_097_N.png,,0,52,52,75,,,,,,,,,,,,,,,,,,,,,,,,,,,,,,,,,,,,,,,,,,,,,,,,,,,,,,,,,,,,,,,,,,,,,,,,,2023-04-07_23h28.24.110,FaceAttractiveness,2022.2.5,144.6845081922331,
images\LCHEEK_CFD_BM_234_172_N.png,,0,53,53,30,,,,,,,,,,,,,,,,,,,,,,,,,,,,,,,,,,,,,,,,,,,,,,,,,,,,,,,,,,,,,,,,,,,,,,,,,2023-04-07_23h28.24.110,FaceAttractiveness,2022.2.5,144.6845081922331,
images\FOREHEAD_087_M_M_N_A.png,,0,54,54,2,,,,,,,,,,,,,,,,,,,,,,,,,,,,,,,,,,,,,,,,,,,,,,,,,,,,,,,,,,,,,,,,,,,,,,,,,2023-04-07_23h28.24.110,FaceAttractiveness,2022.2.5,144.6845081922331,
images\LCHEEK_CFD_LM_201_057_N.png,,0,55,55,32,,,,,,,,,,,,,,,,,,,,,,,,,,,,,,,,,,,,,,,,,,,,,,,,,,,,,,,,,,,,,,,,,,,,,,,,,2023-04-07_23h28.24.110,FaceAttractiveness,2022.2.5,144.6845081922331,
images\LIP_CFD_AF_245_143_N.png,,0,56,56,44,,,,,,,,,,,,,,,,,,,,,,,,,,,,,,,,,,,,,,,,,,,,,,,,,,,,,,,,,,,,,,,,,,,,,,,,,2023-04-07_23h28.24.110,FaceAttractiveness,2022.2.5,144.6845081922331,
images\FOREHEAD_CFD_BM_234_172_N.png,,0,57,57,11,,,,,,,,,,,,,,,,,,,,,,,,,,,,,,,,,,,,,,,,,,,,,,,,,,,,,,,,,,,,,,,,,,,,,,,,,2023-04-07_23h28.24.110,FaceAttractiveness,2022.2.5,144.6845081922331,
images\NASALTIP_CFD_BM_213_134_N.png,,0,58,58,67,,,,,,,,,,,,,,,,,,,,,,,,,,,,,,,,,,,,,,,,,,,,,,,,,,,,,,,,,,,,,,,,,,,,,,,,,2023-04-07_23h28.24.110,FaceAttractiveness,2022.2.5,144.6845081922331,
images\NASALTIP_CFD_AF_231_357_N.png,,0,59,59,61,,,,,,,,,,,,,,,,,,,,,,,,,,,,,,,,,,,,,,,,,,,,,,,,,,,,,,,,,,,,,,,,,,,,,,,,,2023-04-07_23h28.24.110,FaceAttractiveness,2022.2.5,144.6845081922331,
images\FOREHEAD_CFD_AF_237_223_N.png,,0,60,60,5,,,,,,,,,,,,,,,,,,,,,,,,,,,,,,,,,,,,,,,,,,,,,,,,,,,,,,,,,,,,,,,,,,,,,,,,,2023-04-07_23h28.24.110,FaceAttractiveness,2022.2.5,144.6845081922331,
images\FOREHEAD_136_M_M_N_A.png,,0,61,61,3,,,,,,,,,,,,,,,,,,,,,,,,,,,,,,,,,,,,,,,,,,,,,,,,,,,,,,,,,,,,,,,,,,,,,,,,,2023-04-07_23h28.24.110,FaceAttractiveness,2022.2.5,144.6845081922331,
images\NASALTIP_087_M_M_N_A.png,,0,62,62,59,,,,,,,,,,,,,,,,,,,,,,,,,,,,,,,,,,,,,,,,,,,,,,,,,,,,,,,,,,,,,,,,,,,,,,,,,2023-04-07_23h28.24.110,FaceAttractiveness,2022.2.5,144.6845081922331,
images\LIP_CFD_BF_224_002_N.png,,0,63,63,47,,,,,,,,,,,,,,,,,,,,,,,,,,,,,,,,,,,,,,,,,,,,,,,,,,,,,,,,,,,,,,,,,,,,,,,,,2023-04-07_23h28.24.110,FaceAttractiveness,2022.2.5,144.6845081922331,
images\NASALTIP_CFD_BF_224_002_N.png,,0,64,64,66,,,,,,,,,,,,,,,,,,,,,,,,,,,,,,,,,,,,,,,,,,,,,,,,,,,,,,,,,,,,,,,,,,,,,,,,,2023-04-07_23h28.24.110,FaceAttractiveness,2022.2.5,144.6845081922331,
images\FOREHEAD_CFD_LM_201_057_N.png,,0,65,65,13,,,,,,,,,,,,,,,,,,,,,,,,,,,,,,,,,,,,,,,,,,,,,,,,,,,,,,,,,,,,,,,,,,,,,,,,,2023-04-07_23h28.24.110,FaceAttractiveness,2022.2.5,144.6845081922331,
images\LIP_CFD_BM_234_172_N.png,,0,66,66,49,,,,,,,,,,,,,,,,,,,,,,,,,,,,,,,,,,,,,,,,,,,,,,,,,,,,,,,,,,,,,,,,,,,,,,,,,2023-04-07_23h28.24.110,FaceAttractiveness,2022.2.5,144.6845081922331,
images\LIP_CFD_WF_250_167_N.png,,0,67,67,55,,,,,,,,,,,,,,,,,,,,,,,,,,,,,,,,,,,,,,,,,,,,,,,,,,,,,,,,,,,,,,,,,,,,,,,,,2023-04-07_23h28.24.110,FaceAttractiveness,2022.2.5,144.6845081922331,
images\RCHEEK_CFD_AF_237_223_N.png,,0,68,68,81,,,,,,,,,,,,,,,,,,,,,,,,,,,,,,,,,,,,,,,,,,,,,,,,,,,,,,,,,,,,,,,,,,,,,,,,,2023-04-07_23h28.24.110,FaceAttractiveness,2022.2.5,144.6845081922331,
images\NASALTIP_006_M_F_N_A.png,,0,69,69,57,,,,,,,,,,,,,,,,,,,,,,,,,,,,,,,,,,,,,,,,,,,,,,,,,,,,,,,,,,,,,,,,,,,,,,,,,2023-04-07_23h28.24.110,FaceAttractiveness,2022.2.5,144.6845081922331,
images\NASALTIP_CFD_WF_002_004_N.png,,0,70,70,72,,,,,,,,,,,,,,,,,,,,,,,,,,,,,,,,,,,,,,,,,,,,,,,,,,,,,,,,,,,,,,,,,,,,,,,,,2023-04-07_23h28.24.110,FaceAttractiveness,2022.2.5,144.6845081922331,
images\LIP_CFD_AF_231_357_N.png,,0,71,71,42,,,,,,,,,,,,,,,,,,,,,,,,,,,,,,,,,,,,,,,,,,,,,,,,,,,,,,,,,,,,,,,,,,,,,,,,,2023-04-07_23h28.24.110,FaceAttractiveness,2022.2.5,144.6845081922331,
images\NASALTIP_CFD_AM_233_236_N.png,,0,72,72,64,,,,,,,,,,,,,,,,,,,,,,,,,,,,,,,,,,,,,,,,,,,,,,,,,,,,,,,,,,,,,,,,,,,,,,,,,2023-04-07_23h28.24.110,FaceAttractiveness,2022.2.5,144.6845081922331,
images\FOREHEAD_CFD_WF_002_004_N.png,,0,73,73,15,,,,,,,,,,,,,,,,,,,,,,,,,,,,,,,,,,,,,,,,,,,,,,,,,,,,,,,,,,,,,,,,,,,,,,,,,2023-04-07_23h28.24.110,FaceAttractiveness,2022.2.5,144.6845081922331,
images\RCHEEK_CFD_AF_231_357_N.png,,0,74,74,80,,,,,,,,,,,,,,,,,,,,,,,,,,,,,,,,,,,,,,,,,,,,,,,,,,,,,,,,,,,,,,,,,,,,,,,,,2023-04-07_23h28.24.110,FaceAttractiveness,2022.2.5,144.6845081922331,
images\NASALTIP_CFD_LF_224_176_N.png,,0,75,75,69,,,,,,,,,,,,,,,,,,,,,,,,,,,,,,,,,,,,,,,,,,,,,,,,,,,,,,,,,,,,,,,,,,,,,,,,,2023-04-07_23h28.24.110,FaceAttractiveness,2022.2.5,144.6845081922331,
images\NASALTIP_CFD_WF_200_099_N.png,,0,76,76,73,,,,,,,,,,,,,,,,,,,,,,,,,,,,,,,,,,,,,,,,,,,,,,,,,,,,,,,,,,,,,,,,,,,,,,,,,2023-04-07_23h28.24.110,FaceAttractiveness,2022.2.5,144.6845081922331,
images\LIP_006_M_F_N_A.png,,0,77,77,38,,,,,,,,,,,,,,,,,,,,,,,,,,,,,,,,,,,,,,,,,,,,,,,,,,,,,,,,,,,,,,,,,,,,,,,,,2023-04-07_23h28.24.110,FaceAttractiveness,2022.2.5,144.6845081922331,
images\FOREHEAD_CFD_AF_245_143_N.png,,0,78,78,6,,,,,,,,,,,,,,,,,,,,,,,,,,,,,,,,,,,,,,,,,,,,,,,,,,,,,,,,,,,,,,,,,,,,,,,,,2023-04-07_23h28.24.110,FaceAttractiveness,2022.2.5,144.6845081922331,
images\RCHEEK_CFD_WF_200_099_N.png,,0,79,79,92,,,,,,,,,,,,,,,,,,,,,,,,,,,,,,,,,,,,,,,,,,,,,,,,,,,,,,,,,,,,,,,,,,,,,,,,,2023-04-07_23h28.24.110,FaceAttractiveness,2022.2.5,144.6845081922331,
images\LIP_CFD_WF_002_004_N.png,,0,80,80,53,,,,,,,,,,,,,,,,,,,,,,,,,,,,,,,,,,,,,,,,,,,,,,,,,,,,,,,,,,,,,,,,,,,,,,,,,2023-04-07_23h28.24.110,FaceAttractiveness,2022.2.5,144.6845081922331,
images\RCHEEK_035_M_F_N_A.png,,0,81,81,77,,,,,,,,,,,,,,,,,,,,,,,,,,,,,,,,,,,,,,,,,,,,,,,,,,,,,,,,,,,,,,,,,,,,,,,,,2023-04-07_23h28.24.110,FaceAttractiveness,2022.2.5,144.6845081922331,
images\LCHEEK_087_M_M_N_A.png,,0,82,82,21,,,,,,,,,,,,,,,,,,,,,,,,,,,,,,,,,,,,,,,,,,,,,,,,,,,,,,,,,,,,,,,,,,,,,,,,,2023-04-07_23h28.24.110,FaceAttractiveness,2022.2.5,144.6845081922331,
images\LCHEEK_CFD_AF_231_357_N.png,,0,83,83,23,,,,,,,,,,,,,,,,,,,,,,,,,,,,,,,,,,,,,,,,,,,,,,,,,,,,,,,,,,,,,,,,,,,,,,,,,2023-04-07_23h28.24.110,FaceAttractiveness,2022.2.5,144.6845081922331,
images\LIP_087_M_M_N_A.png,,0,84,84,40,,,,,,,,,,,,,,,,,,,,,,,,,,,,,,,,,,,,,,,,,,,,,,,,,,,,,,,,,,,,,,,,,,,,,,,,,2023-04-07_23h28.24.110,FaceAttractiveness,2022.2.5,144.6845081922331,
images\LIP_CFD_WF_200_099_N.png,,0,85,85,54,,,,,,,,,,,,,,,,,,,,,,,,,,,,,,,,,,,,,,,,,,,,,,,,,,,,,,,,,,,,,,,,,,,,,,,,,2023-04-07_23h28.24.110,FaceAttractiveness,2022.2.5,144.6845081922331,
images\FOREHEAD_CFD_BF_214_308_N.png,,0,86,86,8,,,,,,,,,,,,,,,,,,,,,,,,,,,,,,,,,,,,,,,,,,,,,,,,,,,,,,,,,,,,,,,,,,,,,,,,,2023-04-07_23h28.24.110,FaceAttractiveness,2022.2.5,144.6845081922331,
images\RCHEEK_136_M_M_N_A.png,,0,87,87,79,,,,,,,,,,,,,,,,,,,,,,,,,,,,,,,,,,,,,,,,,,,,,,,,,,,,,,,,,,,,,,,,,,,,,,,,,2023-04-07_23h28.24.110,FaceAttractiveness,2022.2.5,144.6845081922331,
images\LIP_CFD_WM_212_097_N.png,,0,88,88,56,,,,,,,,,,,,,,,,,,,,,,,,,,,,,,,,,,,,,,,,,,,,,,,,,,,,,,,,,,,,,,,,,,,,,,,,,2023-04-07_23h28.24.110,FaceAttractiveness,2022.2.5,144.6845081922331,
images\FOREHEAD_CFD_WF_200_099_N.png,,0,89,89,16,,,,,,,,,,,,,,,,,,,,,,,,,,,,,,,,,,,,,,,,,,,,,,,,,,,,,,,,,,,,,,,,,,,,,,,,,2023-04-07_23h28.24.110,FaceAttractiveness,2022.2.5,144.6845081922331,
images\LIP_CFD_AM_233_236_N.png,,0,90,90,45,,,,,,,,,,,,,,,,,,,,,,,,,,,,,,,,,,,,,,,,,,,,,,,,,,,,,,,,,,,,,,,,,,,,,,,,,2023-04-07_23h28.24.110,FaceAttractiveness,2022.2.5,144.6845081922331,
images\LIP_CFD_AF_237_223_N.png,,0,91,91,43,,,,,,,,,,,,,,,,,,,,,,,,,,,,,,,,,,,,,,,,,,,,,,,,,,,,,,,,,,,,,,,,,,,,,,,,,2023-04-07_23h28.24.110,FaceAttractiveness,2022.2.5,144.6845081922331,
images\RCHEEK_CFD_AM_233_236_N.png,,0,92,92,83,,,,,,,,,,,,,,,,,,,,,,,,,,,,,,,,,,,,,,,,,,,,,,,,,,,,,,,,,,,,,,,,,,,,,,,,,2023-04-07_23h28.24.110,FaceAttractiveness,2022.2.5,144.6845081922331,
images\FOREHEAD_CFD_LF_224_176_N.png,,0,93,93,12,,,,,,,,,,,,,,,,,,,,,,,,,,,,,,,,,,,,,,,,,,,,,,,,,,,,,,,,,,,,,,,,,,,,,,,,,2023-04-07_23h28.24.110,FaceAttractiveness,2022.2.5,144.6845081922331,
images\LCHEEK_136_M_M_N_A.png,,0,94,94,22,,,,,,,,,,,,,,,,,,,,,,,,,,,,,,,,,,,,,,,,,,,,,,,,,,,,,,,,,,,,,,,,,,,,,,,,,2023-04-07_23h28.24.110,FaceAttractiveness,2022.2.5,144.6845081922331,
,images\FOREHEAD_CFD_BF_214_308_N.png,,,,,0,0,0,8,,,,,,,,,,,,,,,,,,,,,,,,,,,,,,,,,,,11.018621999999596,11.31777300000067,11.31777300000067,11.31777300000067,11.31777300000067,11.31777300000067,0.3122452000006888,4.0,1.136131100000057,3.0,1.822017099999357,"[0.25925925925925924, -0.009259259259259259, 0.06296296296296296]","[0.000925925925925926, -0.24722222222222223, -0.4203703703703704]","[1, 1, 1]","[0, 0, 0]","[0, 0, 0]","[0.7368358000003354, 1.415020899999945, 3.6308244000010745]",['Confirm'],0.510881822891491,14.96040979999998,15.477684199999203,,,,,,,,,,,,,,2023-04-07_23h28.24.110,FaceAttractiveness,2022.2.5,144.6845081922331,
,images\FOREHEAD_CFD_WF_200_099_N.png,,,,,0,1,1,16,,,,,,,,,,,,,,,,,,,,,,,,,,,,,,,,,,,15.477684199999203,15.779278399999384,15.779278399999384,15.779278399999384,15.779278399999384,15.779278399999384,0.3110841999987315,3.0,1.1351235999991331,3.0,2.081327700001566,"[-0.014814814814814815, 0.006481481481481481, -0.001851851851851852, 0.012037037037037037]","[0.012962962962962963, -0.2351851851851852, -0.23981481481481481, -0.43425925925925923]","[1, 1, 1, 1]","[0, 0, 0, 0]","[0, 0, 0, 0]","[0.7555873000001156, 1.213716199999908, 1.6702930000010383, 2.1442380999997113]",['Confirm'],0.8427646962243501,17.93306230000053,18.78256010000041,,,,,,,,,,,,,,2023-04-07_23h28.24.110,FaceAttractiveness,2022.2.5,144.6845081922331,
,images\FOREHEAD_CFD_AF_231_357_N.png,,,,,0,2,2,4,,,,,,,,,,,,,,,,,,,,,,,,,,,,,,,,,,,18.78256010000041,19.08450880000055,19.08450880000055,19.08450880000055,19.08450880000055,19.08450880000055,0.3108534000002692,3.0,0.8727490000001126,3.0,1.338784300000043,"[-0.009259259259259259, 0.006481481481481481, -0.009259259259259259]","[-0.002777777777777778, -0.25092592592592594, -0.3787037037037037]","[1, 1, 1]","[0, 0, 0]","[0, 0, 0]","[0.46853720000035537, 0.9391966000002867, 1.314610100000209]",['Confirm'],0.5033231412431132,20.40512630000012,20.91470649999974,,,,,,,,,,,,,,2023-04-07_23h28.24.110,FaceAttractiveness,2022.2.5,144.6845081922331,
,images\FOREHEAD_CFD_BM_234_172_N.png,,,,,0,3,3,11,,,,,,,,,,,,,,,,,,,,,,,,,,,,,,,,,,,20.91470649999974,21.215656200000012,21.215656200000012,21.215656200000012,21.215656200000012,21.215656200000012,0.3104370999990351,3.0,0.819951299999957,3.0,1.7812658999991982,"[0.0, -0.004629629629629629, 0.003703703703703704, -0.025925925925925925]","[-0.005555555555555556, -0.2740740740740741, -0.25555555555555554, -0.37222222222222223]","[1, 1, 1, 1]","[0, 0, 0, 0]","[0, 0, 0, 0]","[0.41778619999968214, 0.9079755000002478, 1.3602821000004042, 1.7269845999999234]",['Confirm'],0.7702896722279116,22.953189800000473,23.72793339999953,,,,,,,,,,,,,,2023-04-07_23h28.24.110,FaceAttractiveness,2022.2.5,144.6845081922331,
,images\FOREHEAD_CFD_BM_213_134_N.png,,,,,0,4,4,10,,,,,,,,,,,,,,,,,,,,,,,,,,,,,,,,,,,23.72793339999953,24.02900319999935,24.02900319999935,24.02900319999935,24.02900319999935,24.02900319999935,0.3109859000014694,3.0,0.7655327999982546,3.0,1.3686065999991115,"[-0.007407407407407408, 0.006481481481481481, -0.021296296296296296]","[0.003703703703703704, -0.2574074074074074, -0.387037037037037]","[1, 1, 1]","[0, 0, 0]","[0, 0, 0]","[0.3689799999992829, 0.9878910999996151, 1.3815845999997691]",['Confirm'],0.9900782429102386,25.418743399999585,26.414108200000555,,,,,,,,,,,,,,2023-04-07_23h28.24.110,FaceAttractiveness,2022.2.5,144.6845081922331,
,images\FOREHEAD_CFD_AF_245_143_N.png,,,,,0,5,5,6,,,,,,,,,,,,,,,,,,,,,,,,,,,,,,,,,,,26.414108200000555,26.716482499999984,26.716482499999984,26.716482499999984,26.716482499999984,26.716482499999984,0.3113825000000361,3.0,0.7362824000010733,3.0,1.2471304000009695,"[0.003703703703703704, 0.005555555555555556, -0.004629629629629629]","[-0.011111111111111112, -0.24074074074074073, -0.41759259259259257]","[1, 1, 1]","[0, 0, 0]","[0, 0, 0]","[0.3446131000000605, 0.8476892999988195, 1.2746384000001854]",['Confirm'],0.51222555539493,28.001682800000708,28.519267100000434,,,,,,,,,,,,,,2023-04-07_23h28.24.110,FaceAttractiveness,2022.2.5,144.6845081922331,
,images\FOREHEAD_006_M_F_N_A.png,,,,,0,6,6,0,,,,,,,,,,,,,,,,,,,,,,,,,,,,,,,,,,,28.519267100000434,28.820051000000603,28.820051000000603,28.820051000000603,28.820051000000603,28.820051000000603,0.31056119999993825,3.0,1.1573406000006798,3.0,1.638963600000352,"[-0.001851851851851852, -0.002777777777777778, 0.000925925925925926, -0.03611111111111111]","[0.018518518518518517, 0.011111111111111112, -0.25092592592592594, -0.40370370370370373]","[1, 1, 1, 1]","[0, 0, 0, 0]","[0, 0, 0, 0]","[0.4472220000006928, 0.757150499999625, 1.2551923999999417, 1.596429100000023]",['Confirm'],0.7021573922939208,30.425202599999466,31.129546800000753,,,,,,,,,,,,,,2023-04-07_23h28.24.110,FaceAttractiveness,2022.2.5,144.6845081922331,
,images\FOREHEAD_CFD_LM_201_057_N.png,,,,,0,7,7,13,,,,,,,,,,,,,,,,,,,,,,,,,,,,,,,,,,,31.129546800000753,31.43223450000005,31.43223450000005,31.43223450000005,31.43223450000005,31.43223450000005,0.31180610000046727,3.0,1.2053384999999253,3.0,1.9436028000000078,"[-0.008333333333333333, -0.007407407407407408, 0.007407407407407408, 0.03981481481481482]","[0.020370370370370372, 0.000925925925925926, -0.25555555555555554, -0.3888888888888889]","[1, 1, 1, 1]","[0, 0, 0, 0]","[0, 0, 0, 0]","[0.49050439999882656, 0.8015106999991986, 1.5278152999999293, 2.0335448999994696]",['Confirm'],0.9310187475492714,33.47372019999966,34.40783620000002,,,,,,,,,,,,,,2023-04-07_23h28.24.110,FaceAttractiveness,2022.2.5,144.6845081922331,
,images\FOREHEAD_CFD_LM_203_026_N.png,,,,,0,8,8,14,,,,,,,,,,,,,,,,,,,,,,,,,,,,,,,,,,,34.40783620000002,34.70974930000011,34.70974930000011,34.70974930000011,34.70974930000011,34.70974930000011,0.3114267999990261,3.0,0.8426841000000422,3.0,1.653621600000406,"[0.017592592592592594, 0.012962962962962963, -0.018518518518518517, 0.003703703703703704]","[-0.000925925925925926, -0.25925925925925924, -0.34629629629629627, -0.4074074074074074]","[1, 1, 1, 1]","[0, 0, 0, 0]","[0, 0, 0, 0]","[0.46195279999847116, 1.244309499999872, 1.64865060000011, 1.9573403999984293]",['Confirm'],0.8609768450872566,36.676021400000536,37.53932370000075,,,,,,,,,,,,,,2023-04-07_23h28.24.110,FaceAttractiveness,2022.2.5,144.6845081922331,
,images\FOREHEAD_CFD_WF_250_167_N.png,,,,,0,9,9,17,,,,,,,,,,,,,,,,,,,,,,,,,,,,,,,,,,,37.53932370000075,37.84076839999943,37.84076839999943,37.84076839999943,37.84076839999943,37.84076839999943,0.3101542000003974,3.0,0.7371376999999484,3.0,1.3764661000004708,"[0.01574074074074074, 0.001851851851851852, -0.002777777777777778]","[-0.006481481481481481, -0.24074074074074073, -0.39814814814814814]","[1, 1, 1]","[0, 0, 0]","[0, 0, 0]","[0.35674050000125135, 0.9782807000010507, 1.3878727000010258]",['Confirm'],0.8376344094416512,39.239058600000135,40.08082900000045,,,,,,,,,,,,,,2023-04-07_23h28.24.110,FaceAttractiveness,2022.2.5,144.6845081922331,
,images\FOREHEAD_CFD_WF_002_004_N.png,,,,,0,10,10,15,,,,,,,,,,,,,,,,,,,,,,,,,,,,,,,,,,,40.08082900000045,40.37656749999951,40.37656749999951,40.37656749999951,40.37656749999951,40.37656749999951,0.3053491999999096,3.0,0.8499030999992101,3.0,1.8629540000001725,"[-0.002777777777777778, -0.007407407407407408, -0.003703703703703704, 0.008333333333333333]","[0.006481481481481481, -0.22685185185185186, -0.24351851851851852, -0.35]","[1, 1, 1, 1]","[0, 0, 0, 0]","[0, 0, 0, 0]","[0.46306729999923846, 1.0359950000001845, 1.4534667000007175, 1.7924779000004492]",['Confirm'],0.7554179497641423,42.175351100000626,42.9350871000006,,,,,,,,,,,,,,2023-04-07_23h28.24.110,FaceAttractiveness,2022.2.5,144.6845081922331,
,images\FOREHEAD_CFD_AF_237_223_N.png,,,,,0,11,11,5,,,,,,,,,,,,,,,,,,,,,,,,,,,,,,,,,,,42.9350871000006,43.23822509999991,43.23822509999991,43.23822509999991,43.23822509999991,43.23822509999991,0.31253710000055435,3.0,0.828528500000175,3.0,1.5121221000008518,"[-0.004629629629629629, 0.003703703703703704, 0.005555555555555556]","[-0.012962962962962963, -0.2574074074074074, -0.3851851851851852]","[1, 1, 1]","[0, 0, 0]","[0, 0, 0]","[0.437289100000271, 1.137647500001549, 1.5256369000017003]",['Confirm'],0.5341166037286225,44.77227359999961,45.31237859999965,,,,,,,,,,,,,,2023-04-07_23h28.24.110,FaceAttractiveness,2022.2.5,144.6845081922331,
,images\FOREHEAD_CFD_WM_212_097_N.png,,,,,0,12,12,18,,,,,,,,,,,,,,,,,,,,,,,,,,,,,,,,,,,45.31237859999965,45.61124439999912,45.61124439999912,45.61124439999912,45.61124439999912,45.61124439999912,0.3100971000003483,3.0,0.8951392999988457,3.0,1.387587600000188,"[0.000925925925925926, -0.001851851851851852, 0.024074074074074074]","[-0.003703703703703704, -0.2537037037037037, -0.4462962962962963]","[1, 1, 1]","[0, 0, 0]","[0, 0, 0]","[0.5183971999995265, 0.9810717000000295, 1.5639771000005567]",['Confirm'],0.9535974435225983,47.182490099999995,48.14360300000044,,,,,,,,,,,,,,2023-04-07_23h28.24.110,FaceAttractiveness,2022.2.5,144.6845081922331,
,images\FOREHEAD_136_M_M_N_A.png,,,,,0,13,13,3,,,,,,,,,,,,,,,,,,,,,,,,,,,,,,,,,,,48.14360300000044,48.44513369999913,48.44513369999913,48.44513369999913,48.44513369999913,48.44513369999913,0.31046229999992647,3.0,0.8182300000007672,3.0,1.3331883999999263,"[0.0, -0.002777777777777778, 0.019444444444444445]","[-0.002777777777777778, -0.24537037037037038, -0.4361111111111111]","[1, 1, 1]","[0, 0, 0]","[0, 0, 0]","[0.41441500000109954, 0.9461619000012433, 1.409130100000766]",['Confirm'],0.644075191830882,49.86277709999922,50.510981999999785,,,,,,,,,,,,,,2023-04-07_23h28.24.110,FaceAttractiveness,2022.2.5,144.6845081922331,
,images\FOREHEAD_087_M_M_N_A.png,,,,,0,14,14,2,,,,,,,,,,,,,,,,,,,,,,,,,,,,,,,,,,,50.510981999999785,50.81386310000016,50.81386310000016,50.81386310000016,50.81386310000016,50.81386310000016,0.31169260000024224,3.0,1.0905858999994962,3.0,1.5566210999986652,"[-0.004629629629629629, 0.003703703703703704, 0.005555555555555556]","[-0.010185185185185186, -0.24722222222222223, -0.387037037037037]","[1, 1, 1]","[0, 0, 0]","[0, 0, 0]","[0.688531800000419, 1.1431652999999642, 1.507756499999232]",['Confirm'],0.5142503257207687,52.32767790000071,52.84466629999952,,,,,,,,,,,,,,2023-04-07_23h28.24.110,FaceAttractiveness,2022.2.5,144.6845081922331,
,images\FOREHEAD_CFD_LF_224_176_N.png,,,,,0,15,15,12,,,,,,,,,,,,,,,,,,,,,,,,,,,,,,,,,,,52.84466629999952,53.14668639999945,53.14668639999945,53.14668639999945,53.14668639999945,53.14668639999945,0.3114120999998704,3.0,0.9048082000008435,3.0,1.3821544000002177,"[-0.004629629629629629, -0.003703703703703704, 0.012037037037037037]","[0.001851851851851852, -0.2601851851851852, -0.39351851851851855]","[1, 1, 1]","[0, 0, 0]","[0, 0, 0]","[0.489387199999328, 0.982433499999388, 1.3180818999990151]",['Confirm'],0.5356038036974136,54.47279829999934,55.01138209999954,,,,,,,,,,,,,,2023-04-07_23h28.24.110,FaceAttractiveness,2022.2.5,144.6845081922331,
,images\FOREHEAD_CFD_AM_233_236_N.png,,,,,0,16,16,7,,,,,,,,,,,,,,,,,,,,,,,,,,,,,,,,,,,55.01138209999954,55.312892800000554,55.312892800000554,55.312892800000554,55.312892800000554,55.312892800000554,0.31064990000049875,3.0,0.771943800000372,3.0,1.2872019999995246,"[-0.008333333333333333, -0.000925925925925926, 0.008333333333333333]","[-0.002777777777777778, -0.2564814814814815, -0.412962962962963]","[1, 1, 1]","[0, 0, 0]","[0, 0, 0]","[0.3689199999989796, 0.8890802000005351, 1.2347661999992852]",['Confirm'],0.7576211910052111,56.55670359999931,57.317029300000286,,,,,,,,,,,,,,2023-04-07_23h28.24.110,FaceAttractiveness,2022.2.5,144.6845081922331,
,images\FOREHEAD_CFD_BF_224_002_N.png,,,,,0,17,17,9,,,,,,,,,,,,,,,,,,,,,,,,,,,,,,,,,,,57.317029300000286,57.61807249999947,57.61807249999947,57.61807249999947,57.61807249999947,57.61807249999947,0.3109050000002753,3.0,0.8135244999994029,3.0,1.5696484000000055,"[0.0, -0.002777777777777778, -0.005555555555555556, -0.002777777777777778]","[0.0, -0.2740740740740741, -0.25833333333333336, -0.3925925925925926]","[1, 1, 1, 1]","[0, 0, 0, 0]","[0, 0, 0, 0]","[0.40691740000147547, 0.8667908000006719, 1.1725532000000385, 1.5139474000006885]",['Confirm'],0.5096014513668173,59.13993859999937,59.657128799999555,,,,,,,,,,,,,,2023-04-07_23h28.24.110,FaceAttractiveness,2022.2.5,144.6845081922331,
,images\FOREHEAD_035_M_F_N_A.png,,,,,0,18,18,1,,,,,,,,,,,,,,,,,,,,,,,,,,,,,,,,,,,59.657128799999555,59.95813369999996,59.95813369999996,59.95813369999996,59.95813369999996,59.95813369999996,0.31034619999991264,3.0,0.9841485999986617,3.0,1.6050393999994412,"[-0.003703703703703704, -0.000925925925925926, -0.008333333333333333]","[0.0, -0.25092592592592594, -0.3787037037037037]","[1, 1, 1]","[0, 0, 0]","[0, 0, 0]","[0.591959899998983, 1.2224162999991677, 1.5339706999984628]",['Confirm'],0.7962758246820345,61.501035299999785,62.300344200000836,,,,,,,,,,,,,,2023-04-07_23h28.24.110,FaceAttractiveness,2022.2.5,144.6845081922331,
,,,,,,,,,,,,,,,,,,,,,,,,,,,,,,,,,,,,,,,,,,,,,,,,,,,,,,,,,,,,,,,,,62.300344200000836,0.30556980000073963,[0.08611111111111111],[-0.02962962962962963],[1],[0],[0],[1.4234438000003138],['EndText'],,,,,2023-04-07_23h28.24.110,FaceAttractiveness,2022.2.5,144.6845081922331,
