Task,LeftLabel,RightLabel,faceImages,RatingBlockOrder.thisRepN,RatingBlockOrder.thisTrialN,RatingBlockOrder.thisN,RatingBlockOrder.thisIndex,originalFaceTrials.thisRepN,originalFaceTrials.thisTrialN,originalFaceTrials.thisN,originalFaceTrials.thisIndex,face_image_q.started,slider_trustworthy.started,text_trustworthy.started,slider_aggressive.started,text_aggressive.started,Confirm.started,mouse_7.started,Name,Gender,Age,Ethnicity,date,expName,psychopyVersion,frameRate,
treatment,0% Never,100% Always,"images\ LCHEEK_CFD_AM_233_236_N.png
",0,0,0,0,0,0,0,26,,,,,,,,,,,,2023-04-07_19h48.09.913,FaceAttractiveness,2022.2.5,144.0036173447666,
treatment,0% Never,100% Always,images\ RCHEEK_035_M_F_N_A.png,0,0,0,0,0,1,1,77,,,,,,,,,,,,2023-04-07_19h48.09.913,FaceAttractiveness,2022.2.5,144.0036173447666,
treatment,0% Never,100% Always,images\ RCHEEK_CFD_LF_224_176_N.png,0,0,0,0,0,2,2,88,,,,,,,,,,,,2023-04-07_19h48.09.913,FaceAttractiveness,2022.2.5,144.0036173447666,
treatment,0% Never,100% Always,images\ RCHEEK_006_M_F_N_A.png,0,0,0,0,0,3,3,76,,,,,,,,,,,,2023-04-07_19h48.09.913,FaceAttractiveness,2022.2.5,144.0036173447666,
treatment,0% Never,100% Always,images\FOREHEAD_CFD_AF_245_143_N.png,0,0,0,0,0,4,4,6,,,,,,,,,,,,2023-04-07_19h48.09.913,FaceAttractiveness,2022.2.5,144.0036173447666,
treatment,0% Never,100% Always,images\FOREHEAD_CFD_BF_214_308_N.png,0,0,0,0,0,5,5,8,,,,,,,,,,,,2023-04-07_19h48.09.913,FaceAttractiveness,2022.2.5,144.0036173447666,
treatment,0% Never,100% Always,images\ LIP_CFD_AF_237_223_N.png,0,0,0,0,0,6,6,43,,,,,,,,,,,,2023-04-07_19h48.09.913,FaceAttractiveness,2022.2.5,144.0036173447666,
treatment,0% Never,100% Always,images\ LIP_CFD_LF_224_176_N.png,0,0,0,0,0,7,7,50,,,,,,,,,,,,2023-04-07_19h48.09.913,FaceAttractiveness,2022.2.5,144.0036173447666,
treatment,0% Never,100% Always,images\ LCHEEK_087_M_M_N_A.png,0,0,0,0,0,8,8,21,,,,,,,,,,,,2023-04-07_19h48.09.913,FaceAttractiveness,2022.2.5,144.0036173447666,
treatment,0% Never,100% Always,images\ RCHEEK_CFD_BF_224_002_N.png,0,0,0,0,0,9,9,85,,,,,,,,,,,,2023-04-07_19h48.09.913,FaceAttractiveness,2022.2.5,144.0036173447666,
treatment,0% Never,100% Always,images\ LIP_035_M_F_N_A.png,0,0,0,0,0,10,10,39,,,,,,,,,,,,2023-04-07_19h48.09.913,FaceAttractiveness,2022.2.5,144.0036173447666,
treatment,0% Never,100% Always,images\ RCHEEK_CFD_BF_214_308_N.png,0,0,0,0,0,11,11,84,,,,,,,,,,,,2023-04-07_19h48.09.913,FaceAttractiveness,2022.2.5,144.0036173447666,
treatment,0% Never,100% Always,images\ NASALTIP_CFD_WM_212_097_N.png,0,0,0,0,0,12,12,75,,,,,,,,,,,,2023-04-07_19h48.09.913,FaceAttractiveness,2022.2.5,144.0036173447666,
treatment,0% Never,100% Always,images\FOREHEAD_035_M_F_N_A.png,0,0,0,0,0,13,13,1,,,,,,,,,,,,2023-04-07_19h48.09.913,FaceAttractiveness,2022.2.5,144.0036173447666,
treatment,0% Never,100% Always,images\ RCHEEK_CFD_AF_245_143_N.png,0,0,0,0,0,14,14,82,,,,,,,,,,,,2023-04-07_19h48.09.913,FaceAttractiveness,2022.2.5,144.0036173447666,
treatment,0% Never,100% Always,images\ RCHEEK_CFD_LM_203_026_N.png,0,0,0,0,0,15,15,90,,,,,,,,,,,,2023-04-07_19h48.09.913,FaceAttractiveness,2022.2.5,144.0036173447666,
treatment,0% Never,100% Always,"images\ LIP_CFD_AM_233_236_N.png
",0,0,0,0,0,16,16,45,,,,,,,,,,,,2023-04-07_19h48.09.913,FaceAttractiveness,2022.2.5,144.0036173447666,
treatment,0% Never,100% Always,images\ RCHEEK_CFD_WF_200_099_N.png,0,0,0,0,0,17,17,92,,,,,,,,,,,,2023-04-07_19h48.09.913,FaceAttractiveness,2022.2.5,144.0036173447666,
treatment,0% Never,100% Always,images\ LCHEEK_CFD_WF_250_167_N.png,0,0,0,0,0,18,18,36,,,,,,,,,,,,2023-04-07_19h48.09.913,FaceAttractiveness,2022.2.5,144.0036173447666,
treatment,0% Never,100% Always,images\ LCHEEK_006_M_F_N_A.png,0,0,0,0,0,19,19,19,,,,,,,,,,,,2023-04-07_19h48.09.913,FaceAttractiveness,2022.2.5,144.0036173447666,
treatment,0% Never,100% Always,"images\ LIP_CFD_BM_234_172_N.png
",0,0,0,0,0,20,20,49,,,,,,,,,,,,2023-04-07_19h48.09.913,FaceAttractiveness,2022.2.5,144.0036173447666,
treatment,0% Never,100% Always,images\FOREHEAD_CFD_AM_233_236_N.png,0,0,0,0,0,21,21,7,,,,,,,,,,,,2023-04-07_19h48.09.913,FaceAttractiveness,2022.2.5,144.0036173447666,
treatment,0% Never,100% Always,images\FOREHEAD_CFD_LM_203_026_N.png,0,0,0,0,0,22,22,14,,,,,,,,,,,,2023-04-07_19h48.09.913,FaceAttractiveness,2022.2.5,144.0036173447666,
treatment,0% Never,100% Always,images\ LIP_CFD_AF_245_143_N.png,0,0,0,0,0,23,23,44,,,,,,,,,,,,2023-04-07_19h48.09.913,FaceAttractiveness,2022.2.5,144.0036173447666,
treatment,0% Never,100% Always,images\ LCHEEK_CFD_LM_203_026_N.png,0,0,0,0,0,24,24,33,,,,,,,,,,,,2023-04-07_19h48.09.913,FaceAttractiveness,2022.2.5,144.0036173447666,
treatment,0% Never,100% Always,images\ NASALTIP_CFD_WF_250_167_N.png,0,0,0,0,0,25,25,74,,,,,,,,,,,,2023-04-07_19h48.09.913,FaceAttractiveness,2022.2.5,144.0036173447666,
treatment,0% Never,100% Always,"images\ RCHEEK_CFD_AM_233_236_N.png
",0,0,0,0,0,26,26,83,,,,,,,,,,,,2023-04-07_19h48.09.913,FaceAttractiveness,2022.2.5,144.0036173447666,
treatment,0% Never,100% Always,"images\ LCHEEK_136_M_M_N_A.png
",0,0,0,0,0,27,27,22,,,,,,,,,,,,2023-04-07_19h48.09.913,FaceAttractiveness,2022.2.5,144.0036173447666,
treatment,0% Never,100% Always,"images\ NASALTIP_CFD_AM_233_236_N.png
",0,0,0,0,0,28,28,64,,,,,,,,,,,,2023-04-07_19h48.09.913,FaceAttractiveness,2022.2.5,144.0036173447666,
treatment,0% Never,100% Always,images\FOREHEAD_CFD_BM_234_172_N.png,0,0,0,0,0,29,29,11,,,,,,,,,,,,2023-04-07_19h48.09.913,FaceAttractiveness,2022.2.5,144.0036173447666,
treatment,0% Never,100% Always,images\FOREHEAD_CFD_BM_213_134_N.png,0,0,0,0,0,30,30,10,,,,,,,,,,,,2023-04-07_19h48.09.913,FaceAttractiveness,2022.2.5,144.0036173447666,
treatment,0% Never,100% Always,images\ NASALTIP_CFD_LM_203_026_N.png,0,0,0,0,0,31,31,71,,,,,,,,,,,,2023-04-07_19h48.09.913,FaceAttractiveness,2022.2.5,144.0036173447666,
treatment,0% Never,100% Always,images\ NASALTIP_035_M_F_N_A.png,0,0,0,0,0,32,32,58,,,,,,,,,,,,2023-04-07_19h48.09.913,FaceAttractiveness,2022.2.5,144.0036173447666,
treatment,0% Never,100% Always,"images\ LIP_CFD_WF_002_004_N.png
",0,0,0,0,0,33,33,53,,,,,,,,,,,,2023-04-07_19h48.09.913,FaceAttractiveness,2022.2.5,144.0036173447666,
treatment,0% Never,100% Always,"images\ LCHEEK_CFD_BM_234_172_N.png
",0,0,0,0,0,34,34,30,,,,,,,,,,,,2023-04-07_19h48.09.913,FaceAttractiveness,2022.2.5,144.0036173447666,
treatment,0% Never,100% Always,images\FOREHEAD_CFD_LF_224_176_N.png,0,0,0,0,0,35,35,12,,,,,,,,,,,,2023-04-07_19h48.09.913,FaceAttractiveness,2022.2.5,144.0036173447666,
treatment,0% Never,100% Always,images\ LCHEEK_CFD_AF_237_223_N.png,0,0,0,0,0,36,36,24,,,,,,,,,,,,2023-04-07_19h48.09.913,FaceAttractiveness,2022.2.5,144.0036173447666,
treatment,0% Never,100% Always,images\ NASALTIP_CFD_BF_224_002_N.png,0,0,0,0,0,37,37,66,,,,,,,,,,,,2023-04-07_19h48.09.913,FaceAttractiveness,2022.2.5,144.0036173447666,
treatment,0% Never,100% Always,images\ LIP_CFD_BF_214_308_N.png,0,0,0,0,0,38,38,46,,,,,,,,,,,,2023-04-07_19h48.09.913,FaceAttractiveness,2022.2.5,144.0036173447666,
treatment,0% Never,100% Always,images\ RCHEEK_CFD_WF_250_167_N.png,0,0,0,0,0,39,39,93,,,,,,,,,,,,2023-04-07_19h48.09.913,FaceAttractiveness,2022.2.5,144.0036173447666,
treatment,0% Never,100% Always,images\FOREHEAD_006_M_F_N_A.png,0,0,0,0,0,40,40,0,,,,,,,,,,,,2023-04-07_19h48.09.913,FaceAttractiveness,2022.2.5,144.0036173447666,
treatment,0% Never,100% Always,images\ RCHEEK_CFD_LM_201_057_N.png,0,0,0,0,0,41,41,89,,,,,,,,,,,,2023-04-07_19h48.09.913,FaceAttractiveness,2022.2.5,144.0036173447666,
treatment,0% Never,100% Always,images\ NASALTIP_CFD_BM_213_134_N.png,0,0,0,0,0,42,42,67,,,,,,,,,,,,2023-04-07_19h48.09.913,FaceAttractiveness,2022.2.5,144.0036173447666,
treatment,0% Never,100% Always,images\ NASALTIP_CFD_LM_201_057_N.png,0,0,0,0,0,43,43,70,,,,,,,,,,,,2023-04-07_19h48.09.913,FaceAttractiveness,2022.2.5,144.0036173447666,
treatment,0% Never,100% Always,images\ NASALTIP_CFD_AF_237_223_N.png,0,0,0,0,0,44,44,62,,,,,,,,,,,,2023-04-07_19h48.09.913,FaceAttractiveness,2022.2.5,144.0036173447666,
treatment,0% Never,100% Always,images\ LCHEEK_CFD_WF_200_099_N.png,0,0,0,0,0,45,45,35,,,,,,,,,,,,2023-04-07_19h48.09.913,FaceAttractiveness,2022.2.5,144.0036173447666,
treatment,0% Never,100% Always,images\ LIP_CFD_WF_250_167_N.png,0,0,0,0,0,46,46,55,,,,,,,,,,,,2023-04-07_19h48.09.913,FaceAttractiveness,2022.2.5,144.0036173447666,
treatment,0% Never,100% Always,images\FOREHEAD_CFD_WF_250_167_N.png,0,0,0,0,0,47,47,17,,,,,,,,,,,,2023-04-07_19h48.09.913,FaceAttractiveness,2022.2.5,144.0036173447666,
treatment,0% Never,100% Always,images\ LIP_CFD_AF_231_357_N.png,0,0,0,0,0,48,48,42,,,,,,,,,,,,2023-04-07_19h48.09.913,FaceAttractiveness,2022.2.5,144.0036173447666,
treatment,0% Never,100% Always,images\ NASALTIP_087_M_M_N_A.png,0,0,0,0,0,49,49,59,,,,,,,,,,,,2023-04-07_19h48.09.913,FaceAttractiveness,2022.2.5,144.0036173447666,
treatment,0% Never,100% Always,"images\ LCHEEK_CFD_WF_002_004_N.png
",0,0,0,0,0,50,50,34,,,,,,,,,,,,2023-04-07_19h48.09.913,FaceAttractiveness,2022.2.5,144.0036173447666,
treatment,0% Never,100% Always,images\FOREHEAD_136_M_M_N_A.png,0,0,0,0,0,51,51,3,,,,,,,,,,,,2023-04-07_19h48.09.913,FaceAttractiveness,2022.2.5,144.0036173447666,
treatment,0% Never,100% Always,images\ LIP_CFD_LM_201_057_N.png,0,0,0,0,0,52,52,51,,,,,,,,,,,,2023-04-07_19h48.09.913,FaceAttractiveness,2022.2.5,144.0036173447666,
treatment,0% Never,100% Always,images\ RCHEEK_CFD_WM_212_097_N.png,0,0,0,0,0,53,53,94,,,,,,,,,,,,2023-04-07_19h48.09.913,FaceAttractiveness,2022.2.5,144.0036173447666,
treatment,0% Never,100% Always,images\ NASALTIP_CFD_AF_245_143_N.png,0,0,0,0,0,54,54,63,,,,,,,,,,,,2023-04-07_19h48.09.913,FaceAttractiveness,2022.2.5,144.0036173447666,
treatment,0% Never,100% Always,"images\ RCHEEK_CFD_BM_234_172_N.png
",0,0,0,0,0,55,55,87,,,,,,,,,,,,2023-04-07_19h48.09.913,FaceAttractiveness,2022.2.5,144.0036173447666,
treatment,0% Never,100% Always,images\ LCHEEK_CFD_BM_213_134_N.png,0,0,0,0,0,56,56,29,,,,,,,,,,,,2023-04-07_19h48.09.913,FaceAttractiveness,2022.2.5,144.0036173447666,
treatment,0% Never,100% Always,images\ NASALTIP_CFD_WF_200_099_N.png,0,0,0,0,0,57,57,73,,,,,,,,,,,,2023-04-07_19h48.09.913,FaceAttractiveness,2022.2.5,144.0036173447666,
treatment,0% Never,100% Always,images\FOREHEAD_CFD_BF_224_002_N.png,0,0,0,0,0,58,58,9,,,,,,,,,,,,2023-04-07_19h48.09.913,FaceAttractiveness,2022.2.5,144.0036173447666,
treatment,0% Never,100% Always,images\ LIP_CFD_WF_200_099_N.png,0,0,0,0,0,59,59,54,,,,,,,,,,,,2023-04-07_19h48.09.913,FaceAttractiveness,2022.2.5,144.0036173447666,
treatment,0% Never,100% Always,images\FOREHEAD_CFD_WM_212_097_N.png,0,0,0,0,0,60,60,18,,,,,,,,,,,,2023-04-07_19h48.09.913,FaceAttractiveness,2022.2.5,144.0036173447666,
treatment,0% Never,100% Always,"images\ RCHEEK_136_M_M_N_A.png
",0,0,0,0,0,61,61,79,,,,,,,,,,,,2023-04-07_19h48.09.913,FaceAttractiveness,2022.2.5,144.0036173447666,
treatment,0% Never,100% Always,images\FOREHEAD_087_M_M_N_A.png,0,0,0,0,0,62,62,2,,,,,,,,,,,,2023-04-07_19h48.09.913,FaceAttractiveness,2022.2.5,144.0036173447666,
treatment,0% Never,100% Always,images\FOREHEAD_CFD_AF_237_223_N.png,0,0,0,0,0,63,63,5,,,,,,,,,,,,2023-04-07_19h48.09.913,FaceAttractiveness,2022.2.5,144.0036173447666,
treatment,0% Never,100% Always,images\ LIP_CFD_BM_213_134_N.png,0,0,0,0,0,64,64,48,,,,,,,,,,,,2023-04-07_19h48.09.913,FaceAttractiveness,2022.2.5,144.0036173447666,
treatment,0% Never,100% Always,"images\ NASALTIP_CFD_WF_002_004_N.png
",0,0,0,0,0,65,65,72,,,,,,,,,,,,2023-04-07_19h48.09.913,FaceAttractiveness,2022.2.5,144.0036173447666,
treatment,0% Never,100% Always,images\ LCHEEK_CFD_LM_201_057_N.png,0,0,0,0,0,66,66,32,,,,,,,,,,,,2023-04-07_19h48.09.913,FaceAttractiveness,2022.2.5,144.0036173447666,
treatment,0% Never,100% Always,images\ LCHEEK_035_M_F_N_A.png,0,0,0,0,0,67,67,20,,,,,,,,,,,,2023-04-07_19h48.09.913,FaceAttractiveness,2022.2.5,144.0036173447666,
treatment,0% Never,100% Always,images\FOREHEAD_CFD_WF_200_099_N.png,0,0,0,0,0,68,68,16,,,,,,,,,,,,2023-04-07_19h48.09.913,FaceAttractiveness,2022.2.5,144.0036173447666,
treatment,0% Never,100% Always,images\ LIP_CFD_WM_212_097_N.png,0,0,0,0,0,69,69,56,,,,,,,,,,,,2023-04-07_19h48.09.913,FaceAttractiveness,2022.2.5,144.0036173447666,
treatment,0% Never,100% Always,images\ LIP_CFD_LM_203_026_N.png,0,0,0,0,0,70,70,52,,,,,,,,,,,,2023-04-07_19h48.09.913,FaceAttractiveness,2022.2.5,144.0036173447666,
treatment,0% Never,100% Always,images\ LCHEEK_CFD_AF_231_357_N.png,0,0,0,0,0,71,71,23,,,,,,,,,,,,2023-04-07_19h48.09.913,FaceAttractiveness,2022.2.5,144.0036173447666,
treatment,0% Never,100% Always,images\ RCHEEK_CFD_AF_231_357_N.png,0,0,0,0,0,72,72,80,,,,,,,,,,,,2023-04-07_19h48.09.913,FaceAttractiveness,2022.2.5,144.0036173447666,
treatment,0% Never,100% Always,images\FOREHEAD_CFD_WF_002_004_N.png,0,0,0,0,0,73,73,15,,,,,,,,,,,,2023-04-07_19h48.09.913,FaceAttractiveness,2022.2.5,144.0036173447666,
treatment,0% Never,100% Always,images\ LIP_CFD_BF_224_002_N.png,0,0,0,0,0,74,74,47,,,,,,,,,,,,2023-04-07_19h48.09.913,FaceAttractiveness,2022.2.5,144.0036173447666,
treatment,0% Never,100% Always,images\ LCHEEK_CFD_BF_214_308_N.png,0,0,0,0,0,75,75,27,,,,,,,,,,,,2023-04-07_19h48.09.913,FaceAttractiveness,2022.2.5,144.0036173447666,
treatment,0% Never,100% Always,images\ LIP_087_M_M_N_A.png,0,0,0,0,0,76,76,40,,,,,,,,,,,,2023-04-07_19h48.09.913,FaceAttractiveness,2022.2.5,144.0036173447666,
treatment,0% Never,100% Always,images\ NASALTIP_CFD_AF_231_357_N.png,0,0,0,0,0,77,77,61,,,,,,,,,,,,2023-04-07_19h48.09.913,FaceAttractiveness,2022.2.5,144.0036173447666,
treatment,0% Never,100% Always,"images\ RCHEEK_CFD_WF_002_004_N.png
",0,0,0,0,0,78,78,91,,,,,,,,,,,,2023-04-07_19h48.09.913,FaceAttractiveness,2022.2.5,144.0036173447666,
treatment,0% Never,100% Always,images\ RCHEEK_CFD_BM_213_134_N.png,0,0,0,0,0,79,79,86,,,,,,,,,,,,2023-04-07_19h48.09.913,FaceAttractiveness,2022.2.5,144.0036173447666,
treatment,0% Never,100% Always,images\ LCHEEK_CFD_BF_224_002_N.png,0,0,0,0,0,80,80,28,,,,,,,,,,,,2023-04-07_19h48.09.913,FaceAttractiveness,2022.2.5,144.0036173447666,
treatment,0% Never,100% Always,images\ RCHEEK_CFD_AF_237_223_N.png,0,0,0,0,0,81,81,81,,,,,,,,,,,,2023-04-07_19h48.09.913,FaceAttractiveness,2022.2.5,144.0036173447666,
treatment,0% Never,100% Always,images\ LCHEEK_CFD_AF_245_143_N.png,0,0,0,0,0,82,82,25,,,,,,,,,,,,2023-04-07_19h48.09.913,FaceAttractiveness,2022.2.5,144.0036173447666,
treatment,0% Never,100% Always,images\FOREHEAD_CFD_LM_201_057_N.png,0,0,0,0,0,83,83,13,,,,,,,,,,,,2023-04-07_19h48.09.913,FaceAttractiveness,2022.2.5,144.0036173447666,
treatment,0% Never,100% Always,"images\ LIP_136_M_M_N_A.png
",0,0,0,0,0,84,84,41,,,,,,,,,,,,2023-04-07_19h48.09.913,FaceAttractiveness,2022.2.5,144.0036173447666,
treatment,0% Never,100% Always,images\ NASALTIP_006_M_F_N_A.png,0,0,0,0,0,85,85,57,,,,,,,,,,,,2023-04-07_19h48.09.913,FaceAttractiveness,2022.2.5,144.0036173447666,
treatment,0% Never,100% Always,images\ LCHEEK_CFD_LF_224_176_N.png,0,0,0,0,0,86,86,31,,,,,,,,,,,,2023-04-07_19h48.09.913,FaceAttractiveness,2022.2.5,144.0036173447666,
treatment,0% Never,100% Always,"images\ NASALTIP_CFD_BM_234_172_N.png
",0,0,0,0,0,87,87,68,,,,,,,,,,,,2023-04-07_19h48.09.913,FaceAttractiveness,2022.2.5,144.0036173447666,
treatment,0% Never,100% Always,images\ NASALTIP_CFD_LF_224_176_N.png,0,0,0,0,0,88,88,69,,,,,,,,,,,,2023-04-07_19h48.09.913,FaceAttractiveness,2022.2.5,144.0036173447666,
treatment,0% Never,100% Always,"images\ NASALTIP_136_M_M_N_A.png
",0,0,0,0,0,89,89,60,,,,,,,,,,,,2023-04-07_19h48.09.913,FaceAttractiveness,2022.2.5,144.0036173447666,
treatment,0% Never,100% Always,images\ RCHEEK_087_M_M_N_A.png,0,0,0,0,0,90,90,78,,,,,,,,,,,,2023-04-07_19h48.09.913,FaceAttractiveness,2022.2.5,144.0036173447666,
treatment,0% Never,100% Always,images\ LCHEEK_CFD_WM_212_097_N.png,0,0,0,0,0,91,91,37,,,,,,,,,,,,2023-04-07_19h48.09.913,FaceAttractiveness,2022.2.5,144.0036173447666,
treatment,0% Never,100% Always,images\FOREHEAD_CFD_AF_231_357_N.png,0,0,0,0,0,92,92,4,,,,,,,,,,,,2023-04-07_19h48.09.913,FaceAttractiveness,2022.2.5,144.0036173447666,
treatment,0% Never,100% Always,images\ NASALTIP_CFD_BF_214_308_N.png,0,0,0,0,0,93,93,65,,,,,,,,,,,,2023-04-07_19h48.09.913,FaceAttractiveness,2022.2.5,144.0036173447666,
treatment,0% Never,100% Always,images\ LIP_006_M_F_N_A.png,0,0,0,0,0,94,94,38,,,,,,,,,,,,2023-04-07_19h48.09.913,FaceAttractiveness,2022.2.5,144.0036173447666,
treatment,0% Never,100% Always,images\ NASALTIP_CFD_AF_245_143_N.png,0,0,0,0,1,0,95,63,,,,,,,,,,,,2023-04-07_19h48.09.913,FaceAttractiveness,2022.2.5,144.0036173447666,
treatment,0% Never,100% Always,images\ LCHEEK_087_M_M_N_A.png,0,0,0,0,1,1,96,21,,,,,,,,,,,,2023-04-07_19h48.09.913,FaceAttractiveness,2022.2.5,144.0036173447666,
treatment,0% Never,100% Always,images\ RCHEEK_035_M_F_N_A.png,0,0,0,0,1,2,97,77,,,,,,,,,,,,2023-04-07_19h48.09.913,FaceAttractiveness,2022.2.5,144.0036173447666,
treatment,0% Never,100% Always,images\FOREHEAD_006_M_F_N_A.png,0,0,0,0,1,3,98,0,,,,,,,,,,,,2023-04-07_19h48.09.913,FaceAttractiveness,2022.2.5,144.0036173447666,
treatment,0% Never,100% Always,images\ LCHEEK_CFD_AF_231_357_N.png,0,0,0,0,1,4,99,23,,,,,,,,,,,,2023-04-07_19h48.09.913,FaceAttractiveness,2022.2.5,144.0036173447666,
treatment,0% Never,100% Always,images\FOREHEAD_CFD_AF_245_143_N.png,0,0,0,0,1,5,100,6,,,,,,,,,,,,2023-04-07_19h48.09.913,FaceAttractiveness,2022.2.5,144.0036173447666,
treatment,0% Never,100% Always,images\ LIP_CFD_BM_213_134_N.png,0,0,0,0,1,6,101,48,,,,,,,,,,,,2023-04-07_19h48.09.913,FaceAttractiveness,2022.2.5,144.0036173447666,
treatment,0% Never,100% Always,images\ NASALTIP_CFD_LF_224_176_N.png,0,0,0,0,1,7,102,69,,,,,,,,,,,,2023-04-07_19h48.09.913,FaceAttractiveness,2022.2.5,144.0036173447666,
treatment,0% Never,100% Always,images\ RCHEEK_CFD_WF_250_167_N.png,0,0,0,0,1,8,103,93,,,,,,,,,,,,2023-04-07_19h48.09.913,FaceAttractiveness,2022.2.5,144.0036173447666,
treatment,0% Never,100% Always,images\ LIP_035_M_F_N_A.png,0,0,0,0,1,9,104,39,,,,,,,,,,,,2023-04-07_19h48.09.913,FaceAttractiveness,2022.2.5,144.0036173447666,
treatment,0% Never,100% Always,images\ LCHEEK_CFD_BF_214_308_N.png,0,0,0,0,1,10,105,27,,,,,,,,,,,,2023-04-07_19h48.09.913,FaceAttractiveness,2022.2.5,144.0036173447666,
treatment,0% Never,100% Always,images\ LIP_CFD_WF_250_167_N.png,0,0,0,0,1,11,106,55,,,,,,,,,,,,2023-04-07_19h48.09.913,FaceAttractiveness,2022.2.5,144.0036173447666,
treatment,0% Never,100% Always,images\ LCHEEK_CFD_LF_224_176_N.png,0,0,0,0,1,12,107,31,,,,,,,,,,,,2023-04-07_19h48.09.913,FaceAttractiveness,2022.2.5,144.0036173447666,
treatment,0% Never,100% Always,images\ RCHEEK_006_M_F_N_A.png,0,0,0,0,1,13,108,76,,,,,,,,,,,,2023-04-07_19h48.09.913,FaceAttractiveness,2022.2.5,144.0036173447666,
treatment,0% Never,100% Always,images\ NASALTIP_CFD_BF_224_002_N.png,0,0,0,0,1,14,109,66,,,,,,,,,,,,2023-04-07_19h48.09.913,FaceAttractiveness,2022.2.5,144.0036173447666,
treatment,0% Never,100% Always,images\ RCHEEK_CFD_BM_213_134_N.png,0,0,0,0,1,15,110,86,,,,,,,,,,,,2023-04-07_19h48.09.913,FaceAttractiveness,2022.2.5,144.0036173447666,
treatment,0% Never,100% Always,images\FOREHEAD_CFD_WF_002_004_N.png,0,0,0,0,1,16,111,15,,,,,,,,,,,,2023-04-07_19h48.09.913,FaceAttractiveness,2022.2.5,144.0036173447666,
treatment,0% Never,100% Always,"images\ NASALTIP_136_M_M_N_A.png
",0,0,0,0,1,17,112,60,,,,,,,,,,,,2023-04-07_19h48.09.913,FaceAttractiveness,2022.2.5,144.0036173447666,
treatment,0% Never,100% Always,images\ LCHEEK_CFD_LM_203_026_N.png,0,0,0,0,1,18,113,33,,,,,,,,,,,,2023-04-07_19h48.09.913,FaceAttractiveness,2022.2.5,144.0036173447666,
treatment,0% Never,100% Always,images\ NASALTIP_CFD_AF_231_357_N.png,0,0,0,0,1,19,114,61,,,,,,,,,,,,2023-04-07_19h48.09.913,FaceAttractiveness,2022.2.5,144.0036173447666,
treatment,0% Never,100% Always,images\ LCHEEK_CFD_BM_213_134_N.png,0,0,0,0,1,20,115,29,,,,,,,,,,,,2023-04-07_19h48.09.913,FaceAttractiveness,2022.2.5,144.0036173447666,
treatment,0% Never,100% Always,images\ LCHEEK_CFD_AF_237_223_N.png,0,0,0,0,1,21,116,24,,,,,,,,,,,,2023-04-07_19h48.09.913,FaceAttractiveness,2022.2.5,144.0036173447666,
treatment,0% Never,100% Always,images\FOREHEAD_CFD_BM_234_172_N.png,0,0,0,0,1,22,117,11,,,,,,,,,,,,2023-04-07_19h48.09.913,FaceAttractiveness,2022.2.5,144.0036173447666,
treatment,0% Never,100% Always,images\ LCHEEK_CFD_LM_201_057_N.png,0,0,0,0,1,23,118,32,,,,,,,,,,,,2023-04-07_19h48.09.913,FaceAttractiveness,2022.2.5,144.0036173447666,
treatment,0% Never,100% Always,"images\ LIP_136_M_M_N_A.png
",0,0,0,0,1,24,119,41,,,,,,,,,,,,2023-04-07_19h48.09.913,FaceAttractiveness,2022.2.5,144.0036173447666,
treatment,0% Never,100% Always,images\FOREHEAD_CFD_AM_233_236_N.png,0,0,0,0,1,25,120,7,,,,,,,,,,,,2023-04-07_19h48.09.913,FaceAttractiveness,2022.2.5,144.0036173447666,
treatment,0% Never,100% Always,images\FOREHEAD_CFD_BM_213_134_N.png,0,0,0,0,1,26,121,10,,,,,,,,,,,,2023-04-07_19h48.09.913,FaceAttractiveness,2022.2.5,144.0036173447666,
treatment,0% Never,100% Always,"images\ LIP_CFD_BM_234_172_N.png
",0,0,0,0,1,27,122,49,,,,,,,,,,,,2023-04-07_19h48.09.913,FaceAttractiveness,2022.2.5,144.0036173447666,
treatment,0% Never,100% Always,images\FOREHEAD_CFD_WF_250_167_N.png,0,0,0,0,1,28,123,17,,,,,,,,,,,,2023-04-07_19h48.09.913,FaceAttractiveness,2022.2.5,144.0036173447666,
treatment,0% Never,100% Always,images\ RCHEEK_CFD_AF_245_143_N.png,0,0,0,0,1,29,124,82,,,,,,,,,,,,2023-04-07_19h48.09.913,FaceAttractiveness,2022.2.5,144.0036173447666,
treatment,0% Never,100% Always,images\ RCHEEK_CFD_BF_224_002_N.png,0,0,0,0,1,30,125,85,,,,,,,,,,,,2023-04-07_19h48.09.913,FaceAttractiveness,2022.2.5,144.0036173447666,
treatment,0% Never,100% Always,images\ RCHEEK_CFD_AF_231_357_N.png,0,0,0,0,1,31,126,80,,,,,,,,,,,,2023-04-07_19h48.09.913,FaceAttractiveness,2022.2.5,144.0036173447666,
treatment,0% Never,100% Always,"images\ LCHEEK_CFD_BM_234_172_N.png
",0,0,0,0,1,32,127,30,,,,,,,,,,,,2023-04-07_19h48.09.913,FaceAttractiveness,2022.2.5,144.0036173447666,
treatment,0% Never,100% Always,images\FOREHEAD_136_M_M_N_A.png,0,0,0,0,1,33,128,3,,,,,,,,,,,,2023-04-07_19h48.09.913,FaceAttractiveness,2022.2.5,144.0036173447666,
treatment,0% Never,100% Always,images\ LIP_CFD_WM_212_097_N.png,0,0,0,0,1,34,129,56,,,,,,,,,,,,2023-04-07_19h48.09.913,FaceAttractiveness,2022.2.5,144.0036173447666,
treatment,0% Never,100% Always,images\ LIP_CFD_AF_237_223_N.png,0,0,0,0,1,35,130,43,,,,,,,,,,,,2023-04-07_19h48.09.913,FaceAttractiveness,2022.2.5,144.0036173447666,
treatment,0% Never,100% Always,images\ LCHEEK_CFD_WF_200_099_N.png,0,0,0,0,1,36,131,35,,,,,,,,,,,,2023-04-07_19h48.09.913,FaceAttractiveness,2022.2.5,144.0036173447666,
treatment,0% Never,100% Always,images\FOREHEAD_CFD_BF_214_308_N.png,0,0,0,0,1,37,132,8,,,,,,,,,,,,2023-04-07_19h48.09.913,FaceAttractiveness,2022.2.5,144.0036173447666,
treatment,0% Never,100% Always,images\ NASALTIP_CFD_LM_203_026_N.png,0,0,0,0,1,38,133,71,,,,,,,,,,,,2023-04-07_19h48.09.913,FaceAttractiveness,2022.2.5,144.0036173447666,
treatment,0% Never,100% Always,"images\ LCHEEK_CFD_AM_233_236_N.png
",0,0,0,0,1,39,134,26,,,,,,,,,,,,2023-04-07_19h48.09.913,FaceAttractiveness,2022.2.5,144.0036173447666,
treatment,0% Never,100% Always,images\ RCHEEK_CFD_LM_203_026_N.png,0,0,0,0,1,40,135,90,,,,,,,,,,,,2023-04-07_19h48.09.913,FaceAttractiveness,2022.2.5,144.0036173447666,
treatment,0% Never,100% Always,images\FOREHEAD_CFD_LM_201_057_N.png,0,0,0,0,1,41,136,13,,,,,,,,,,,,2023-04-07_19h48.09.913,FaceAttractiveness,2022.2.5,144.0036173447666,
treatment,0% Never,100% Always,images\FOREHEAD_CFD_WM_212_097_N.png,0,0,0,0,1,42,137,18,,,,,,,,,,,,2023-04-07_19h48.09.913,FaceAttractiveness,2022.2.5,144.0036173447666,
treatment,0% Never,100% Always,images\ RCHEEK_CFD_AF_237_223_N.png,0,0,0,0,1,43,138,81,,,,,,,,,,,,2023-04-07_19h48.09.913,FaceAttractiveness,2022.2.5,144.0036173447666,
treatment,0% Never,100% Always,images\ NASALTIP_CFD_BM_213_134_N.png,0,0,0,0,1,44,139,67,,,,,,,,,,,,2023-04-07_19h48.09.913,FaceAttractiveness,2022.2.5,144.0036173447666,
treatment,0% Never,100% Always,images\ NASALTIP_006_M_F_N_A.png,0,0,0,0,1,45,140,57,,,,,,,,,,,,2023-04-07_19h48.09.913,FaceAttractiveness,2022.2.5,144.0036173447666,
treatment,0% Never,100% Always,"images\ LCHEEK_136_M_M_N_A.png
",0,0,0,0,1,46,141,22,,,,,,,,,,,,2023-04-07_19h48.09.913,FaceAttractiveness,2022.2.5,144.0036173447666,
treatment,0% Never,100% Always,images\FOREHEAD_CFD_LM_203_026_N.png,0,0,0,0,1,47,142,14,,,,,,,,,,,,2023-04-07_19h48.09.913,FaceAttractiveness,2022.2.5,144.0036173447666,
treatment,0% Never,100% Always,images\ NASALTIP_CFD_AF_237_223_N.png,0,0,0,0,1,48,143,62,,,,,,,,,,,,2023-04-07_19h48.09.913,FaceAttractiveness,2022.2.5,144.0036173447666,
treatment,0% Never,100% Always,images\FOREHEAD_035_M_F_N_A.png,0,0,0,0,1,49,144,1,,,,,,,,,,,,2023-04-07_19h48.09.913,FaceAttractiveness,2022.2.5,144.0036173447666,
treatment,0% Never,100% Always,"images\ RCHEEK_CFD_WF_002_004_N.png
",0,0,0,0,1,50,145,91,,,,,,,,,,,,2023-04-07_19h48.09.913,FaceAttractiveness,2022.2.5,144.0036173447666,
treatment,0% Never,100% Always,images\ NASALTIP_CFD_WM_212_097_N.png,0,0,0,0,1,51,146,75,,,,,,,,,,,,2023-04-07_19h48.09.913,FaceAttractiveness,2022.2.5,144.0036173447666,
treatment,0% Never,100% Always,images\ LIP_CFD_LF_224_176_N.png,0,0,0,0,1,52,147,50,,,,,,,,,,,,2023-04-07_19h48.09.913,FaceAttractiveness,2022.2.5,144.0036173447666,
treatment,0% Never,100% Always,images\ RCHEEK_CFD_LM_201_057_N.png,0,0,0,0,1,53,148,89,,,,,,,,,,,,2023-04-07_19h48.09.913,FaceAttractiveness,2022.2.5,144.0036173447666,
treatment,0% Never,100% Always,images\ NASALTIP_035_M_F_N_A.png,0,0,0,0,1,54,149,58,,,,,,,,,,,,2023-04-07_19h48.09.913,FaceAttractiveness,2022.2.5,144.0036173447666,
treatment,0% Never,100% Always,images\ LIP_CFD_LM_201_057_N.png,0,0,0,0,1,55,150,51,,,,,,,,,,,,2023-04-07_19h48.09.913,FaceAttractiveness,2022.2.5,144.0036173447666,
treatment,0% Never,100% Always,images\ RCHEEK_087_M_M_N_A.png,0,0,0,0,1,56,151,78,,,,,,,,,,,,2023-04-07_19h48.09.913,FaceAttractiveness,2022.2.5,144.0036173447666,
treatment,0% Never,100% Always,images\ LIP_CFD_AF_245_143_N.png,0,0,0,0,1,57,152,44,,,,,,,,,,,,2023-04-07_19h48.09.913,FaceAttractiveness,2022.2.5,144.0036173447666,
treatment,0% Never,100% Always,images\ NASALTIP_087_M_M_N_A.png,0,0,0,0,1,58,153,59,,,,,,,,,,,,2023-04-07_19h48.09.913,FaceAttractiveness,2022.2.5,144.0036173447666,
treatment,0% Never,100% Always,"images\ RCHEEK_CFD_BM_234_172_N.png
",0,0,0,0,1,59,154,87,,,,,,,,,,,,2023-04-07_19h48.09.913,FaceAttractiveness,2022.2.5,144.0036173447666,
treatment,0% Never,100% Always,images\ LIP_CFD_BF_214_308_N.png,0,0,0,0,1,60,155,46,,,,,,,,,,,,2023-04-07_19h48.09.913,FaceAttractiveness,2022.2.5,144.0036173447666,
treatment,0% Never,100% Always,images\ LCHEEK_006_M_F_N_A.png,0,0,0,0,1,61,156,19,,,,,,,,,,,,2023-04-07_19h48.09.913,FaceAttractiveness,2022.2.5,144.0036173447666,
treatment,0% Never,100% Always,"images\ LCHEEK_CFD_WF_002_004_N.png
",0,0,0,0,1,62,157,34,,,,,,,,,,,,2023-04-07_19h48.09.913,FaceAttractiveness,2022.2.5,144.0036173447666,
treatment,0% Never,100% Always,images\ LIP_087_M_M_N_A.png,0,0,0,0,1,63,158,40,,,,,,,,,,,,2023-04-07_19h48.09.913,FaceAttractiveness,2022.2.5,144.0036173447666,
treatment,0% Never,100% Always,"images\ LIP_CFD_WF_002_004_N.png
",0,0,0,0,1,64,159,53,,,,,,,,,,,,2023-04-07_19h48.09.913,FaceAttractiveness,2022.2.5,144.0036173447666,
treatment,0% Never,100% Always,images\FOREHEAD_CFD_LF_224_176_N.png,0,0,0,0,1,65,160,12,,,,,,,,,,,,2023-04-07_19h48.09.913,FaceAttractiveness,2022.2.5,144.0036173447666,
treatment,0% Never,100% Always,"images\ RCHEEK_CFD_AM_233_236_N.png
",0,0,0,0,1,66,161,83,,,,,,,,,,,,2023-04-07_19h48.09.913,FaceAttractiveness,2022.2.5,144.0036173447666,
treatment,0% Never,100% Always,images\ LCHEEK_035_M_F_N_A.png,0,0,0,0,1,67,162,20,,,,,,,,,,,,2023-04-07_19h48.09.913,FaceAttractiveness,2022.2.5,144.0036173447666,
treatment,0% Never,100% Always,images\ NASALTIP_CFD_LM_201_057_N.png,0,0,0,0,1,68,163,70,,,,,,,,,,,,2023-04-07_19h48.09.913,FaceAttractiveness,2022.2.5,144.0036173447666,
treatment,0% Never,100% Always,images\ LIP_006_M_F_N_A.png,0,0,0,0,1,69,164,38,,,,,,,,,,,,2023-04-07_19h48.09.913,FaceAttractiveness,2022.2.5,144.0036173447666,
treatment,0% Never,100% Always,images\FOREHEAD_CFD_AF_237_223_N.png,0,0,0,0,1,70,165,5,,,,,,,,,,,,2023-04-07_19h48.09.913,FaceAttractiveness,2022.2.5,144.0036173447666,
treatment,0% Never,100% Always,images\FOREHEAD_087_M_M_N_A.png,0,0,0,0,1,71,166,2,,,,,,,,,,,,2023-04-07_19h48.09.913,FaceAttractiveness,2022.2.5,144.0036173447666,
treatment,0% Never,100% Always,images\FOREHEAD_CFD_BF_224_002_N.png,0,0,0,0,1,72,167,9,,,,,,,,,,,,2023-04-07_19h48.09.913,FaceAttractiveness,2022.2.5,144.0036173447666,
treatment,0% Never,100% Always,images\ LIP_CFD_LM_203_026_N.png,0,0,0,0,1,73,168,52,,,,,,,,,,,,2023-04-07_19h48.09.913,FaceAttractiveness,2022.2.5,144.0036173447666,
treatment,0% Never,100% Always,images\ LCHEEK_CFD_AF_245_143_N.png,0,0,0,0,1,74,169,25,,,,,,,,,,,,2023-04-07_19h48.09.913,FaceAttractiveness,2022.2.5,144.0036173447666,
treatment,0% Never,100% Always,images\ RCHEEK_CFD_WF_200_099_N.png,0,0,0,0,1,75,170,92,,,,,,,,,,,,2023-04-07_19h48.09.913,FaceAttractiveness,2022.2.5,144.0036173447666,
treatment,0% Never,100% Always,"images\ NASALTIP_CFD_WF_002_004_N.png
",0,0,0,0,1,76,171,72,,,,,,,,,,,,2023-04-07_19h48.09.913,FaceAttractiveness,2022.2.5,144.0036173447666,
treatment,0% Never,100% Always,images\ NASALTIP_CFD_WF_200_099_N.png,0,0,0,0,1,77,172,73,,,,,,,,,,,,2023-04-07_19h48.09.913,FaceAttractiveness,2022.2.5,144.0036173447666,
treatment,0% Never,100% Always,images\ LIP_CFD_BF_224_002_N.png,0,0,0,0,1,78,173,47,,,,,,,,,,,,2023-04-07_19h48.09.913,FaceAttractiveness,2022.2.5,144.0036173447666,
treatment,0% Never,100% Always,"images\ NASALTIP_CFD_BM_234_172_N.png
",0,0,0,0,1,79,174,68,,,,,,,,,,,,2023-04-07_19h48.09.913,FaceAttractiveness,2022.2.5,144.0036173447666,
treatment,0% Never,100% Always,"images\ RCHEEK_136_M_M_N_A.png
",0,0,0,0,1,80,175,79,,,,,,,,,,,,2023-04-07_19h48.09.913,FaceAttractiveness,2022.2.5,144.0036173447666,
treatment,0% Never,100% Always,images\ LCHEEK_CFD_WF_250_167_N.png,0,0,0,0,1,81,176,36,,,,,,,,,,,,2023-04-07_19h48.09.913,FaceAttractiveness,2022.2.5,144.0036173447666,
treatment,0% Never,100% Always,images\FOREHEAD_CFD_WF_200_099_N.png,0,0,0,0,1,82,177,16,,,,,,,,,,,,2023-04-07_19h48.09.913,FaceAttractiveness,2022.2.5,144.0036173447666,
treatment,0% Never,100% Always,images\ LIP_CFD_AF_231_357_N.png,0,0,0,0,1,83,178,42,,,,,,,,,,,,2023-04-07_19h48.09.913,FaceAttractiveness,2022.2.5,144.0036173447666,
treatment,0% Never,100% Always,images\ LCHEEK_CFD_WM_212_097_N.png,0,0,0,0,1,84,179,37,,,,,,,,,,,,2023-04-07_19h48.09.913,FaceAttractiveness,2022.2.5,144.0036173447666,
treatment,0% Never,100% Always,"images\ LIP_CFD_AM_233_236_N.png
",0,0,0,0,1,85,180,45,,,,,,,,,,,,2023-04-07_19h48.09.913,FaceAttractiveness,2022.2.5,144.0036173447666,
treatment,0% Never,100% Always,images\FOREHEAD_CFD_AF_231_357_N.png,0,0,0,0,1,86,181,4,,,,,,,,,,,,2023-04-07_19h48.09.913,FaceAttractiveness,2022.2.5,144.0036173447666,
treatment,0% Never,100% Always,images\ LCHEEK_CFD_BF_224_002_N.png,0,0,0,0,1,87,182,28,,,,,,,,,,,,2023-04-07_19h48.09.913,FaceAttractiveness,2022.2.5,144.0036173447666,
treatment,0% Never,100% Always,images\ NASALTIP_CFD_BF_214_308_N.png,0,0,0,0,1,88,183,65,,,,,,,,,,,,2023-04-07_19h48.09.913,FaceAttractiveness,2022.2.5,144.0036173447666,
treatment,0% Never,100% Always,images\ RCHEEK_CFD_WM_212_097_N.png,0,0,0,0,1,89,184,94,,,,,,,,,,,,2023-04-07_19h48.09.913,FaceAttractiveness,2022.2.5,144.0036173447666,
treatment,0% Never,100% Always,images\ RCHEEK_CFD_LF_224_176_N.png,0,0,0,0,1,90,185,88,,,,,,,,,,,,2023-04-07_19h48.09.913,FaceAttractiveness,2022.2.5,144.0036173447666,
treatment,0% Never,100% Always,"images\ NASALTIP_CFD_AM_233_236_N.png
",0,0,0,0,1,91,186,64,,,,,,,,,,,,2023-04-07_19h48.09.913,FaceAttractiveness,2022.2.5,144.0036173447666,
treatment,0% Never,100% Always,images\ RCHEEK_CFD_BF_214_308_N.png,0,0,0,0,1,92,187,84,,,,,,,,,,,,2023-04-07_19h48.09.913,FaceAttractiveness,2022.2.5,144.0036173447666,
treatment,0% Never,100% Always,images\ LIP_CFD_WF_200_099_N.png,0,0,0,0,1,93,188,54,,,,,,,,,,,,2023-04-07_19h48.09.913,FaceAttractiveness,2022.2.5,144.0036173447666,
treatment,0% Never,100% Always,images\ NASALTIP_CFD_WF_250_167_N.png,0,0,0,0,1,94,189,74,,,,,,,,,,,,2023-04-07_19h48.09.913,FaceAttractiveness,2022.2.5,144.0036173447666,
treatment,0% Never,100% Always,images\ RCHEEK_CFD_AF_231_357_N.png,0,0,0,0,2,0,190,80,,,,,,,,,,,,2023-04-07_19h48.09.913,FaceAttractiveness,2022.2.5,144.0036173447666,
treatment,0% Never,100% Always,images\ LIP_CFD_BM_213_134_N.png,0,0,0,0,2,1,191,48,,,,,,,,,,,,2023-04-07_19h48.09.913,FaceAttractiveness,2022.2.5,144.0036173447666,
treatment,0% Never,100% Always,"images\ NASALTIP_CFD_BM_234_172_N.png
",0,0,0,0,2,2,192,68,,,,,,,,,,,,2023-04-07_19h48.09.913,FaceAttractiveness,2022.2.5,144.0036173447666,
treatment,0% Never,100% Always,images\ NASALTIP_CFD_AF_231_357_N.png,0,0,0,0,2,3,193,61,,,,,,,,,,,,2023-04-07_19h48.09.913,FaceAttractiveness,2022.2.5,144.0036173447666,
treatment,0% Never,100% Always,images\ RCHEEK_CFD_WM_212_097_N.png,0,0,0,0,2,4,194,94,,,,,,,,,,,,2023-04-07_19h48.09.913,FaceAttractiveness,2022.2.5,144.0036173447666,
treatment,0% Never,100% Always,images\ LCHEEK_CFD_WF_250_167_N.png,0,0,0,0,2,5,195,36,,,,,,,,,,,,2023-04-07_19h48.09.913,FaceAttractiveness,2022.2.5,144.0036173447666,
treatment,0% Never,100% Always,images\ NASALTIP_CFD_WF_200_099_N.png,0,0,0,0,2,6,196,73,,,,,,,,,,,,2023-04-07_19h48.09.913,FaceAttractiveness,2022.2.5,144.0036173447666,
treatment,0% Never,100% Always,images\FOREHEAD_006_M_F_N_A.png,0,0,0,0,2,7,197,0,,,,,,,,,,,,2023-04-07_19h48.09.913,FaceAttractiveness,2022.2.5,144.0036173447666,
treatment,0% Never,100% Always,images\ LIP_CFD_WF_200_099_N.png,0,0,0,0,2,8,198,54,,,,,,,,,,,,2023-04-07_19h48.09.913,FaceAttractiveness,2022.2.5,144.0036173447666,
treatment,0% Never,100% Always,images\ LCHEEK_CFD_BF_214_308_N.png,0,0,0,0,2,9,199,27,,,,,,,,,,,,2023-04-07_19h48.09.913,FaceAttractiveness,2022.2.5,144.0036173447666,
treatment,0% Never,100% Always,images\ RCHEEK_035_M_F_N_A.png,0,0,0,0,2,10,200,77,,,,,,,,,,,,2023-04-07_19h48.09.913,FaceAttractiveness,2022.2.5,144.0036173447666,
treatment,0% Never,100% Always,images\ NASALTIP_006_M_F_N_A.png,0,0,0,0,2,11,201,57,,,,,,,,,,,,2023-04-07_19h48.09.913,FaceAttractiveness,2022.2.5,144.0036173447666,
treatment,0% Never,100% Always,images\ RCHEEK_CFD_BF_224_002_N.png,0,0,0,0,2,12,202,85,,,,,,,,,,,,2023-04-07_19h48.09.913,FaceAttractiveness,2022.2.5,144.0036173447666,
treatment,0% Never,100% Always,images\FOREHEAD_087_M_M_N_A.png,0,0,0,0,2,13,203,2,,,,,,,,,,,,2023-04-07_19h48.09.913,FaceAttractiveness,2022.2.5,144.0036173447666,
treatment,0% Never,100% Always,images\ NASALTIP_CFD_LM_203_026_N.png,0,0,0,0,2,14,204,71,,,,,,,,,,,,2023-04-07_19h48.09.913,FaceAttractiveness,2022.2.5,144.0036173447666,
treatment,0% Never,100% Always,images\ LIP_CFD_AF_231_357_N.png,0,0,0,0,2,15,205,42,,,,,,,,,,,,2023-04-07_19h48.09.913,FaceAttractiveness,2022.2.5,144.0036173447666,
treatment,0% Never,100% Always,images\ NASALTIP_087_M_M_N_A.png,0,0,0,0,2,16,206,59,,,,,,,,,,,,2023-04-07_19h48.09.913,FaceAttractiveness,2022.2.5,144.0036173447666,
treatment,0% Never,100% Always,images\FOREHEAD_CFD_BM_234_172_N.png,0,0,0,0,2,17,207,11,,,,,,,,,,,,2023-04-07_19h48.09.913,FaceAttractiveness,2022.2.5,144.0036173447666,
treatment,0% Never,100% Always,images\ LCHEEK_CFD_BM_213_134_N.png,0,0,0,0,2,18,208,29,,,,,,,,,,,,2023-04-07_19h48.09.913,FaceAttractiveness,2022.2.5,144.0036173447666,
treatment,0% Never,100% Always,images\ LCHEEK_087_M_M_N_A.png,0,0,0,0,2,19,209,21,,,,,,,,,,,,2023-04-07_19h48.09.913,FaceAttractiveness,2022.2.5,144.0036173447666,
treatment,0% Never,100% Always,images\ NASALTIP_CFD_BF_224_002_N.png,0,0,0,0,2,20,210,66,,,,,,,,,,,,2023-04-07_19h48.09.913,FaceAttractiveness,2022.2.5,144.0036173447666,
treatment,0% Never,100% Always,images\ NASALTIP_CFD_WM_212_097_N.png,0,0,0,0,2,21,211,75,,,,,,,,,,,,2023-04-07_19h48.09.913,FaceAttractiveness,2022.2.5,144.0036173447666,
treatment,0% Never,100% Always,images\ LCHEEK_CFD_WF_200_099_N.png,0,0,0,0,2,22,212,35,,,,,,,,,,,,2023-04-07_19h48.09.913,FaceAttractiveness,2022.2.5,144.0036173447666,
treatment,0% Never,100% Always,images\ LIP_006_M_F_N_A.png,0,0,0,0,2,23,213,38,,,,,,,,,,,,2023-04-07_19h48.09.913,FaceAttractiveness,2022.2.5,144.0036173447666,
treatment,0% Never,100% Always,images\ LIP_CFD_LM_203_026_N.png,0,0,0,0,2,24,214,52,,,,,,,,,,,,2023-04-07_19h48.09.913,FaceAttractiveness,2022.2.5,144.0036173447666,
treatment,0% Never,100% Always,images\ LCHEEK_CFD_AF_237_223_N.png,0,0,0,0,2,25,215,24,,,,,,,,,,,,2023-04-07_19h48.09.913,FaceAttractiveness,2022.2.5,144.0036173447666,
treatment,0% Never,100% Always,images\ LCHEEK_CFD_LM_201_057_N.png,0,0,0,0,2,26,216,32,,,,,,,,,,,,2023-04-07_19h48.09.913,FaceAttractiveness,2022.2.5,144.0036173447666,
treatment,0% Never,100% Always,images\ RCHEEK_CFD_AF_245_143_N.png,0,0,0,0,2,27,217,82,,,,,,,,,,,,2023-04-07_19h48.09.913,FaceAttractiveness,2022.2.5,144.0036173447666,
treatment,0% Never,100% Always,images\ LIP_CFD_WM_212_097_N.png,0,0,0,0,2,28,218,56,,,,,,,,,,,,2023-04-07_19h48.09.913,FaceAttractiveness,2022.2.5,144.0036173447666,
treatment,0% Never,100% Always,images\ NASALTIP_CFD_WF_250_167_N.png,0,0,0,0,2,29,219,74,,,,,,,,,,,,2023-04-07_19h48.09.913,FaceAttractiveness,2022.2.5,144.0036173447666,
treatment,0% Never,100% Always,images\ LCHEEK_CFD_LM_203_026_N.png,0,0,0,0,2,30,220,33,,,,,,,,,,,,2023-04-07_19h48.09.913,FaceAttractiveness,2022.2.5,144.0036173447666,
treatment,0% Never,100% Always,images\ LCHEEK_035_M_F_N_A.png,0,0,0,0,2,31,221,20,,,,,,,,,,,,2023-04-07_19h48.09.913,FaceAttractiveness,2022.2.5,144.0036173447666,
treatment,0% Never,100% Always,images\ NASALTIP_CFD_AF_237_223_N.png,0,0,0,0,2,32,222,62,,,,,,,,,,,,2023-04-07_19h48.09.913,FaceAttractiveness,2022.2.5,144.0036173447666,
treatment,0% Never,100% Always,"images\ LIP_CFD_WF_002_004_N.png
",0,0,0,0,2,33,223,53,,,,,,,,,,,,2023-04-07_19h48.09.913,FaceAttractiveness,2022.2.5,144.0036173447666,
treatment,0% Never,100% Always,images\FOREHEAD_CFD_BF_214_308_N.png,0,0,0,0,2,34,224,8,,,,,,,,,,,,2023-04-07_19h48.09.913,FaceAttractiveness,2022.2.5,144.0036173447666,
treatment,0% Never,100% Always,"images\ LCHEEK_CFD_BM_234_172_N.png
",0,0,0,0,2,35,225,30,,,,,,,,,,,,2023-04-07_19h48.09.913,FaceAttractiveness,2022.2.5,144.0036173447666,
treatment,0% Never,100% Always,images\ LCHEEK_CFD_AF_245_143_N.png,0,0,0,0,2,36,226,25,,,,,,,,,,,,2023-04-07_19h48.09.913,FaceAttractiveness,2022.2.5,144.0036173447666,
treatment,0% Never,100% Always,images\ RCHEEK_CFD_BF_214_308_N.png,0,0,0,0,2,37,227,84,,,,,,,,,,,,2023-04-07_19h48.09.913,FaceAttractiveness,2022.2.5,144.0036173447666,
treatment,0% Never,100% Always,"images\ LCHEEK_CFD_AM_233_236_N.png
",0,0,0,0,2,38,228,26,,,,,,,,,,,,2023-04-07_19h48.09.913,FaceAttractiveness,2022.2.5,144.0036173447666,
treatment,0% Never,100% Always,images\FOREHEAD_CFD_AM_233_236_N.png,0,0,0,0,2,39,229,7,,,,,,,,,,,,2023-04-07_19h48.09.913,FaceAttractiveness,2022.2.5,144.0036173447666,
treatment,0% Never,100% Always,images\ NASALTIP_CFD_LM_201_057_N.png,0,0,0,0,2,40,230,70,,,,,,,,,,,,2023-04-07_19h48.09.913,FaceAttractiveness,2022.2.5,144.0036173447666,
treatment,0% Never,100% Always,images\ LIP_CFD_WF_250_167_N.png,0,0,0,0,2,41,231,55,,,,,,,,,,,,2023-04-07_19h48.09.913,FaceAttractiveness,2022.2.5,144.0036173447666,
treatment,0% Never,100% Always,images\FOREHEAD_CFD_WF_200_099_N.png,0,0,0,0,2,42,232,16,,,,,,,,,,,,2023-04-07_19h48.09.913,FaceAttractiveness,2022.2.5,144.0036173447666,
treatment,0% Never,100% Always,images\FOREHEAD_CFD_WM_212_097_N.png,0,0,0,0,2,43,233,18,,,,,,,,,,,,2023-04-07_19h48.09.913,FaceAttractiveness,2022.2.5,144.0036173447666,
treatment,0% Never,100% Always,images\ LCHEEK_006_M_F_N_A.png,0,0,0,0,2,44,234,19,,,,,,,,,,,,2023-04-07_19h48.09.913,FaceAttractiveness,2022.2.5,144.0036173447666,
treatment,0% Never,100% Always,"images\ LIP_CFD_BM_234_172_N.png
",0,0,0,0,2,45,235,49,,,,,,,,,,,,2023-04-07_19h48.09.913,FaceAttractiveness,2022.2.5,144.0036173447666,
treatment,0% Never,100% Always,images\ LCHEEK_CFD_LF_224_176_N.png,0,0,0,0,2,46,236,31,,,,,,,,,,,,2023-04-07_19h48.09.913,FaceAttractiveness,2022.2.5,144.0036173447666,
treatment,0% Never,100% Always,images\ NASALTIP_CFD_BF_214_308_N.png,0,0,0,0,2,47,237,65,,,,,,,,,,,,2023-04-07_19h48.09.913,FaceAttractiveness,2022.2.5,144.0036173447666,
treatment,0% Never,100% Always,"images\ NASALTIP_CFD_WF_002_004_N.png
",0,0,0,0,2,48,238,72,,,,,,,,,,,,2023-04-07_19h48.09.913,FaceAttractiveness,2022.2.5,144.0036173447666,
treatment,0% Never,100% Always,images\FOREHEAD_CFD_LF_224_176_N.png,0,0,0,0,2,49,239,12,,,,,,,,,,,,2023-04-07_19h48.09.913,FaceAttractiveness,2022.2.5,144.0036173447666,
treatment,0% Never,100% Always,"images\ RCHEEK_CFD_WF_002_004_N.png
",0,0,0,0,2,50,240,91,,,,,,,,,,,,2023-04-07_19h48.09.913,FaceAttractiveness,2022.2.5,144.0036173447666,
treatment,0% Never,100% Always,images\FOREHEAD_136_M_M_N_A.png,0,0,0,0,2,51,241,3,,,,,,,,,,,,2023-04-07_19h48.09.913,FaceAttractiveness,2022.2.5,144.0036173447666,
treatment,0% Never,100% Always,images\FOREHEAD_CFD_WF_250_167_N.png,0,0,0,0,2,52,242,17,,,,,,,,,,,,2023-04-07_19h48.09.913,FaceAttractiveness,2022.2.5,144.0036173447666,
treatment,0% Never,100% Always,images\ LCHEEK_CFD_AF_231_357_N.png,0,0,0,0,2,53,243,23,,,,,,,,,,,,2023-04-07_19h48.09.913,FaceAttractiveness,2022.2.5,144.0036173447666,
treatment,0% Never,100% Always,images\ LIP_087_M_M_N_A.png,0,0,0,0,2,54,244,40,,,,,,,,,,,,2023-04-07_19h48.09.913,FaceAttractiveness,2022.2.5,144.0036173447666,
treatment,0% Never,100% Always,images\ LIP_CFD_LM_201_057_N.png,0,0,0,0,2,55,245,51,,,,,,,,,,,,2023-04-07_19h48.09.913,FaceAttractiveness,2022.2.5,144.0036173447666,
treatment,0% Never,100% Always,images\ LIP_CFD_BF_214_308_N.png,0,0,0,0,2,56,246,46,,,,,,,,,,,,2023-04-07_19h48.09.913,FaceAttractiveness,2022.2.5,144.0036173447666,
treatment,0% Never,100% Always,images\ NASALTIP_CFD_AF_245_143_N.png,0,0,0,0,2,57,247,63,,,,,,,,,,,,2023-04-07_19h48.09.913,FaceAttractiveness,2022.2.5,144.0036173447666,
treatment,0% Never,100% Always,images\ RCHEEK_CFD_WF_200_099_N.png,0,0,0,0,2,58,248,92,,,,,,,,,,,,2023-04-07_19h48.09.913,FaceAttractiveness,2022.2.5,144.0036173447666,
treatment,0% Never,100% Always,images\FOREHEAD_CFD_AF_245_143_N.png,0,0,0,0,2,59,249,6,,,,,,,,,,,,2023-04-07_19h48.09.913,FaceAttractiveness,2022.2.5,144.0036173447666,
treatment,0% Never,100% Always,"images\ NASALTIP_CFD_AM_233_236_N.png
",0,0,0,0,2,60,250,64,,,,,,,,,,,,2023-04-07_19h48.09.913,FaceAttractiveness,2022.2.5,144.0036173447666,
treatment,0% Never,100% Always,images\FOREHEAD_CFD_BM_213_134_N.png,0,0,0,0,2,61,251,10,,,,,,,,,,,,2023-04-07_19h48.09.913,FaceAttractiveness,2022.2.5,144.0036173447666,
treatment,0% Never,100% Always,"images\ RCHEEK_136_M_M_N_A.png
",0,0,0,0,2,62,252,79,,,,,,,,,,,,2023-04-07_19h48.09.913,FaceAttractiveness,2022.2.5,144.0036173447666,
treatment,0% Never,100% Always,"images\ NASALTIP_136_M_M_N_A.png
",0,0,0,0,2,63,253,60,,,,,,,,,,,,2023-04-07_19h48.09.913,FaceAttractiveness,2022.2.5,144.0036173447666,
treatment,0% Never,100% Always,"images\ LIP_136_M_M_N_A.png
",0,0,0,0,2,64,254,41,,,,,,,,,,,,2023-04-07_19h48.09.913,FaceAttractiveness,2022.2.5,144.0036173447666,
treatment,0% Never,100% Always,images\ NASALTIP_CFD_LF_224_176_N.png,0,0,0,0,2,65,255,69,,,,,,,,,,,,2023-04-07_19h48.09.913,FaceAttractiveness,2022.2.5,144.0036173447666,
treatment,0% Never,100% Always,images\FOREHEAD_035_M_F_N_A.png,0,0,0,0,2,66,256,1,,,,,,,,,,,,2023-04-07_19h48.09.913,FaceAttractiveness,2022.2.5,144.0036173447666,
treatment,0% Never,100% Always,images\ RCHEEK_CFD_LM_203_026_N.png,0,0,0,0,2,67,257,90,,,,,,,,,,,,2023-04-07_19h48.09.913,FaceAttractiveness,2022.2.5,144.0036173447666,
treatment,0% Never,100% Always,images\ NASALTIP_CFD_BM_213_134_N.png,0,0,0,0,2,68,258,67,,,,,,,,,,,,2023-04-07_19h48.09.913,FaceAttractiveness,2022.2.5,144.0036173447666,
treatment,0% Never,100% Always,images\ LIP_035_M_F_N_A.png,0,0,0,0,2,69,259,39,,,,,,,,,,,,2023-04-07_19h48.09.913,FaceAttractiveness,2022.2.5,144.0036173447666,
treatment,0% Never,100% Always,images\FOREHEAD_CFD_WF_002_004_N.png,0,0,0,0,2,70,260,15,,,,,,,,,,,,2023-04-07_19h48.09.913,FaceAttractiveness,2022.2.5,144.0036173447666,
treatment,0% Never,100% Always,"images\ RCHEEK_CFD_BM_234_172_N.png
",0,0,0,0,2,71,261,87,,,,,,,,,,,,2023-04-07_19h48.09.913,FaceAttractiveness,2022.2.5,144.0036173447666,
treatment,0% Never,100% Always,images\FOREHEAD_CFD_AF_237_223_N.png,0,0,0,0,2,72,262,5,,,,,,,,,,,,2023-04-07_19h48.09.913,FaceAttractiveness,2022.2.5,144.0036173447666,
treatment,0% Never,100% Always,images\ RCHEEK_CFD_BM_213_134_N.png,0,0,0,0,2,73,263,86,,,,,,,,,,,,2023-04-07_19h48.09.913,FaceAttractiveness,2022.2.5,144.0036173447666,
treatment,0% Never,100% Always,images\FOREHEAD_CFD_AF_231_357_N.png,0,0,0,0,2,74,264,4,,,,,,,,,,,,2023-04-07_19h48.09.913,FaceAttractiveness,2022.2.5,144.0036173447666,
treatment,0% Never,100% Always,images\ LCHEEK_CFD_BF_224_002_N.png,0,0,0,0,2,75,265,28,,,,,,,,,,,,2023-04-07_19h48.09.913,FaceAttractiveness,2022.2.5,144.0036173447666,
treatment,0% Never,100% Always,images\ LCHEEK_CFD_WM_212_097_N.png,0,0,0,0,2,76,266,37,,,,,,,,,,,,2023-04-07_19h48.09.913,FaceAttractiveness,2022.2.5,144.0036173447666,
treatment,0% Never,100% Always,images\ RCHEEK_CFD_LM_201_057_N.png,0,0,0,0,2,77,267,89,,,,,,,,,,,,2023-04-07_19h48.09.913,FaceAttractiveness,2022.2.5,144.0036173447666,
treatment,0% Never,100% Always,images\FOREHEAD_CFD_LM_203_026_N.png,0,0,0,0,2,78,268,14,,,,,,,,,,,,2023-04-07_19h48.09.913,FaceAttractiveness,2022.2.5,144.0036173447666,
treatment,0% Never,100% Always,images\ RCHEEK_006_M_F_N_A.png,0,0,0,0,2,79,269,76,,,,,,,,,,,,2023-04-07_19h48.09.913,FaceAttractiveness,2022.2.5,144.0036173447666,
treatment,0% Never,100% Always,images\ LIP_CFD_LF_224_176_N.png,0,0,0,0,2,80,270,50,,,,,,,,,,,,2023-04-07_19h48.09.913,FaceAttractiveness,2022.2.5,144.0036173447666,
treatment,0% Never,100% Always,"images\ LCHEEK_136_M_M_N_A.png
",0,0,0,0,2,81,271,22,,,,,,,,,,,,2023-04-07_19h48.09.913,FaceAttractiveness,2022.2.5,144.0036173447666,
treatment,0% Never,100% Always,images\ LIP_CFD_BF_224_002_N.png,0,0,0,0,2,82,272,47,,,,,,,,,,,,2023-04-07_19h48.09.913,FaceAttractiveness,2022.2.5,144.0036173447666,
treatment,0% Never,100% Always,"images\ LIP_CFD_AM_233_236_N.png
",0,0,0,0,2,83,273,45,,,,,,,,,,,,2023-04-07_19h48.09.913,FaceAttractiveness,2022.2.5,144.0036173447666,
treatment,0% Never,100% Always,images\ RCHEEK_087_M_M_N_A.png,0,0,0,0,2,84,274,78,,,,,,,,,,,,2023-04-07_19h48.09.913,FaceAttractiveness,2022.2.5,144.0036173447666,
treatment,0% Never,100% Always,images\ RCHEEK_CFD_WF_250_167_N.png,0,0,0,0,2,85,275,93,,,,,,,,,,,,2023-04-07_19h48.09.913,FaceAttractiveness,2022.2.5,144.0036173447666,
treatment,0% Never,100% Always,images\FOREHEAD_CFD_LM_201_057_N.png,0,0,0,0,2,86,276,13,,,,,,,,,,,,2023-04-07_19h48.09.913,FaceAttractiveness,2022.2.5,144.0036173447666,
treatment,0% Never,100% Always,"images\ LCHEEK_CFD_WF_002_004_N.png
",0,0,0,0,2,87,277,34,,,,,,,,,,,,2023-04-07_19h48.09.913,FaceAttractiveness,2022.2.5,144.0036173447666,
treatment,0% Never,100% Always,images\ RCHEEK_CFD_LF_224_176_N.png,0,0,0,0,2,88,278,88,,,,,,,,,,,,2023-04-07_19h48.09.913,FaceAttractiveness,2022.2.5,144.0036173447666,
treatment,0% Never,100% Always,images\ RCHEEK_CFD_AF_237_223_N.png,0,0,0,0,2,89,279,81,,,,,,,,,,,,2023-04-07_19h48.09.913,FaceAttractiveness,2022.2.5,144.0036173447666,
treatment,0% Never,100% Always,"images\ RCHEEK_CFD_AM_233_236_N.png
",0,0,0,0,2,90,280,83,,,,,,,,,,,,2023-04-07_19h48.09.913,FaceAttractiveness,2022.2.5,144.0036173447666,
treatment,0% Never,100% Always,images\ LIP_CFD_AF_245_143_N.png,0,0,0,0,2,91,281,44,,,,,,,,,,,,2023-04-07_19h48.09.913,FaceAttractiveness,2022.2.5,144.0036173447666,
treatment,0% Never,100% Always,images\ NASALTIP_035_M_F_N_A.png,0,0,0,0,2,92,282,58,,,,,,,,,,,,2023-04-07_19h48.09.913,FaceAttractiveness,2022.2.5,144.0036173447666,
treatment,0% Never,100% Always,images\FOREHEAD_CFD_BF_224_002_N.png,0,0,0,0,2,93,283,9,,,,,,,,,,,,2023-04-07_19h48.09.913,FaceAttractiveness,2022.2.5,144.0036173447666,
treatment,0% Never,100% Always,images\ LIP_CFD_AF_237_223_N.png,0,0,0,0,2,94,284,43,,,,,,,,,,,,2023-04-07_19h48.09.913,FaceAttractiveness,2022.2.5,144.0036173447666,
treatment,0% Never,100% Always,images\ RCHEEK_CFD_LM_201_057_N.png,0,0,0,0,3,0,285,89,,,,,,,,,,,,2023-04-07_19h48.09.913,FaceAttractiveness,2022.2.5,144.0036173447666,
treatment,0% Never,100% Always,images\ NASALTIP_006_M_F_N_A.png,0,0,0,0,3,1,286,57,,,,,,,,,,,,2023-04-07_19h48.09.913,FaceAttractiveness,2022.2.5,144.0036173447666,
treatment,0% Never,100% Always,"images\ NASALTIP_CFD_WF_002_004_N.png
",0,0,0,0,3,2,287,72,,,,,,,,,,,,2023-04-07_19h48.09.913,FaceAttractiveness,2022.2.5,144.0036173447666,
treatment,0% Never,100% Always,images\ LCHEEK_CFD_BF_214_308_N.png,0,0,0,0,3,3,288,27,,,,,,,,,,,,2023-04-07_19h48.09.913,FaceAttractiveness,2022.2.5,144.0036173447666,
treatment,0% Never,100% Always,images\ LIP_CFD_BF_224_002_N.png,0,0,0,0,3,4,289,47,,,,,,,,,,,,2023-04-07_19h48.09.913,FaceAttractiveness,2022.2.5,144.0036173447666,
treatment,0% Never,100% Always,"images\ RCHEEK_CFD_WF_002_004_N.png
",0,0,0,0,3,5,290,91,,,,,,,,,,,,2023-04-07_19h48.09.913,FaceAttractiveness,2022.2.5,144.0036173447666,
treatment,0% Never,100% Always,images\ RCHEEK_006_M_F_N_A.png,0,0,0,0,3,6,291,76,,,,,,,,,,,,2023-04-07_19h48.09.913,FaceAttractiveness,2022.2.5,144.0036173447666,
treatment,0% Never,100% Always,images\ LCHEEK_CFD_AF_231_357_N.png,0,0,0,0,3,7,292,23,,,,,,,,,,,,2023-04-07_19h48.09.913,FaceAttractiveness,2022.2.5,144.0036173447666,
treatment,0% Never,100% Always,images\FOREHEAD_136_M_M_N_A.png,0,0,0,0,3,8,293,3,,,,,,,,,,,,2023-04-07_19h48.09.913,FaceAttractiveness,2022.2.5,144.0036173447666,
treatment,0% Never,100% Always,images\FOREHEAD_CFD_AM_233_236_N.png,0,0,0,0,3,9,294,7,,,,,,,,,,,,2023-04-07_19h48.09.913,FaceAttractiveness,2022.2.5,144.0036173447666,
treatment,0% Never,100% Always,images\FOREHEAD_CFD_AF_245_143_N.png,0,0,0,0,3,10,295,6,,,,,,,,,,,,2023-04-07_19h48.09.913,FaceAttractiveness,2022.2.5,144.0036173447666,
treatment,0% Never,100% Always,images\ RCHEEK_CFD_AF_231_357_N.png,0,0,0,0,3,11,296,80,,,,,,,,,,,,2023-04-07_19h48.09.913,FaceAttractiveness,2022.2.5,144.0036173447666,
treatment,0% Never,100% Always,images\FOREHEAD_CFD_WF_250_167_N.png,0,0,0,0,3,12,297,17,,,,,,,,,,,,2023-04-07_19h48.09.913,FaceAttractiveness,2022.2.5,144.0036173447666,
treatment,0% Never,100% Always,images\ LIP_CFD_AF_245_143_N.png,0,0,0,0,3,13,298,44,,,,,,,,,,,,2023-04-07_19h48.09.913,FaceAttractiveness,2022.2.5,144.0036173447666,
treatment,0% Never,100% Always,"images\ LIP_136_M_M_N_A.png
",0,0,0,0,3,14,299,41,,,,,,,,,,,,2023-04-07_19h48.09.913,FaceAttractiveness,2022.2.5,144.0036173447666,
treatment,0% Never,100% Always,images\FOREHEAD_CFD_AF_237_223_N.png,0,0,0,0,3,15,300,5,,,,,,,,,,,,2023-04-07_19h48.09.913,FaceAttractiveness,2022.2.5,144.0036173447666,
treatment,0% Never,100% Always,images\ RCHEEK_CFD_BF_224_002_N.png,0,0,0,0,3,16,301,85,,,,,,,,,,,,2023-04-07_19h48.09.913,FaceAttractiveness,2022.2.5,144.0036173447666,
treatment,0% Never,100% Always,images\ NASALTIP_087_M_M_N_A.png,0,0,0,0,3,17,302,59,,,,,,,,,,,,2023-04-07_19h48.09.913,FaceAttractiveness,2022.2.5,144.0036173447666,
treatment,0% Never,100% Always,images\ LCHEEK_CFD_AF_245_143_N.png,0,0,0,0,3,18,303,25,,,,,,,,,,,,2023-04-07_19h48.09.913,FaceAttractiveness,2022.2.5,144.0036173447666,
treatment,0% Never,100% Always,images\FOREHEAD_087_M_M_N_A.png,0,0,0,0,3,19,304,2,,,,,,,,,,,,2023-04-07_19h48.09.913,FaceAttractiveness,2022.2.5,144.0036173447666,
treatment,0% Never,100% Always,images\ NASALTIP_CFD_BF_224_002_N.png,0,0,0,0,3,20,305,66,,,,,,,,,,,,2023-04-07_19h48.09.913,FaceAttractiveness,2022.2.5,144.0036173447666,
treatment,0% Never,100% Always,images\ RCHEEK_CFD_BF_214_308_N.png,0,0,0,0,3,21,306,84,,,,,,,,,,,,2023-04-07_19h48.09.913,FaceAttractiveness,2022.2.5,144.0036173447666,
treatment,0% Never,100% Always,images\ NASALTIP_CFD_WF_250_167_N.png,0,0,0,0,3,22,307,74,,,,,,,,,,,,2023-04-07_19h48.09.913,FaceAttractiveness,2022.2.5,144.0036173447666,
treatment,0% Never,100% Always,images\ LCHEEK_CFD_BF_224_002_N.png,0,0,0,0,3,23,308,28,,,,,,,,,,,,2023-04-07_19h48.09.913,FaceAttractiveness,2022.2.5,144.0036173447666,
treatment,0% Never,100% Always,images\FOREHEAD_CFD_BM_234_172_N.png,0,0,0,0,3,24,309,11,,,,,,,,,,,,2023-04-07_19h48.09.913,FaceAttractiveness,2022.2.5,144.0036173447666,
treatment,0% Never,100% Always,images\FOREHEAD_CFD_LM_203_026_N.png,0,0,0,0,3,25,310,14,,,,,,,,,,,,2023-04-07_19h48.09.913,FaceAttractiveness,2022.2.5,144.0036173447666,
treatment,0% Never,100% Always,images\ LIP_CFD_AF_237_223_N.png,0,0,0,0,3,26,311,43,,,,,,,,,,,,2023-04-07_19h48.09.913,FaceAttractiveness,2022.2.5,144.0036173447666,
treatment,0% Never,100% Always,"images\ LCHEEK_CFD_BM_234_172_N.png
",0,0,0,0,3,27,312,30,,,,,,,,,,,,2023-04-07_19h48.09.913,FaceAttractiveness,2022.2.5,144.0036173447666,
treatment,0% Never,100% Always,images\ RCHEEK_CFD_BM_213_134_N.png,0,0,0,0,3,28,313,86,,,,,,,,,,,,2023-04-07_19h48.09.913,FaceAttractiveness,2022.2.5,144.0036173447666,
treatment,0% Never,100% Always,"images\ RCHEEK_CFD_BM_234_172_N.png
",0,0,0,0,3,29,314,87,,,,,,,,,,,,2023-04-07_19h48.09.913,FaceAttractiveness,2022.2.5,144.0036173447666,
treatment,0% Never,100% Always,images\ LCHEEK_035_M_F_N_A.png,0,0,0,0,3,30,315,20,,,,,,,,,,,,2023-04-07_19h48.09.913,FaceAttractiveness,2022.2.5,144.0036173447666,
treatment,0% Never,100% Always,images\ NASALTIP_CFD_LM_201_057_N.png,0,0,0,0,3,31,316,70,,,,,,,,,,,,2023-04-07_19h48.09.913,FaceAttractiveness,2022.2.5,144.0036173447666,
treatment,0% Never,100% Always,"images\ NASALTIP_CFD_AM_233_236_N.png
",0,0,0,0,3,32,317,64,,,,,,,,,,,,2023-04-07_19h48.09.913,FaceAttractiveness,2022.2.5,144.0036173447666,
treatment,0% Never,100% Always,images\ NASALTIP_CFD_BM_213_134_N.png,0,0,0,0,3,33,318,67,,,,,,,,,,,,2023-04-07_19h48.09.913,FaceAttractiveness,2022.2.5,144.0036173447666,
treatment,0% Never,100% Always,"images\ NASALTIP_136_M_M_N_A.png
",0,0,0,0,3,34,319,60,,,,,,,,,,,,2023-04-07_19h48.09.913,FaceAttractiveness,2022.2.5,144.0036173447666,
treatment,0% Never,100% Always,images\ NASALTIP_035_M_F_N_A.png,0,0,0,0,3,35,320,58,,,,,,,,,,,,2023-04-07_19h48.09.913,FaceAttractiveness,2022.2.5,144.0036173447666,
treatment,0% Never,100% Always,images\ LIP_CFD_LM_201_057_N.png,0,0,0,0,3,36,321,51,,,,,,,,,,,,2023-04-07_19h48.09.913,FaceAttractiveness,2022.2.5,144.0036173447666,
treatment,0% Never,100% Always,images\ LIP_CFD_AF_231_357_N.png,0,0,0,0,3,37,322,42,,,,,,,,,,,,2023-04-07_19h48.09.913,FaceAttractiveness,2022.2.5,144.0036173447666,
treatment,0% Never,100% Always,images\ LCHEEK_CFD_LM_203_026_N.png,0,0,0,0,3,38,323,33,,,,,,,,,,,,2023-04-07_19h48.09.913,FaceAttractiveness,2022.2.5,144.0036173447666,
treatment,0% Never,100% Always,"images\ LCHEEK_CFD_AM_233_236_N.png
",0,0,0,0,3,39,324,26,,,,,,,,,,,,2023-04-07_19h48.09.913,FaceAttractiveness,2022.2.5,144.0036173447666,
treatment,0% Never,100% Always,"images\ LCHEEK_136_M_M_N_A.png
",0,0,0,0,3,40,325,22,,,,,,,,,,,,2023-04-07_19h48.09.913,FaceAttractiveness,2022.2.5,144.0036173447666,
treatment,0% Never,100% Always,images\ LCHEEK_CFD_LM_201_057_N.png,0,0,0,0,3,41,326,32,,,,,,,,,,,,2023-04-07_19h48.09.913,FaceAttractiveness,2022.2.5,144.0036173447666,
treatment,0% Never,100% Always,images\FOREHEAD_CFD_WF_200_099_N.png,0,0,0,0,3,42,327,16,,,,,,,,,,,,2023-04-07_19h48.09.913,FaceAttractiveness,2022.2.5,144.0036173447666,
treatment,0% Never,100% Always,images\ NASALTIP_CFD_AF_245_143_N.png,0,0,0,0,3,43,328,63,,,,,,,,,,,,2023-04-07_19h48.09.913,FaceAttractiveness,2022.2.5,144.0036173447666,
treatment,0% Never,100% Always,images\ NASALTIP_CFD_LM_203_026_N.png,0,0,0,0,3,44,329,71,,,,,,,,,,,,2023-04-07_19h48.09.913,FaceAttractiveness,2022.2.5,144.0036173447666,
treatment,0% Never,100% Always,images\ LIP_CFD_BM_213_134_N.png,0,0,0,0,3,45,330,48,,,,,,,,,,,,2023-04-07_19h48.09.913,FaceAttractiveness,2022.2.5,144.0036173447666,
treatment,0% Never,100% Always,images\ LIP_CFD_LM_203_026_N.png,0,0,0,0,3,46,331,52,,,,,,,,,,,,2023-04-07_19h48.09.913,FaceAttractiveness,2022.2.5,144.0036173447666,
treatment,0% Never,100% Always,images\ LIP_CFD_WF_250_167_N.png,0,0,0,0,3,47,332,55,,,,,,,,,,,,2023-04-07_19h48.09.913,FaceAttractiveness,2022.2.5,144.0036173447666,
treatment,0% Never,100% Always,"images\ RCHEEK_CFD_AM_233_236_N.png
",0,0,0,0,3,48,333,83,,,,,,,,,,,,2023-04-07_19h48.09.913,FaceAttractiveness,2022.2.5,144.0036173447666,
treatment,0% Never,100% Always,images\ RCHEEK_CFD_WF_200_099_N.png,0,0,0,0,3,49,334,92,,,,,,,,,,,,2023-04-07_19h48.09.913,FaceAttractiveness,2022.2.5,144.0036173447666,
treatment,0% Never,100% Always,images\ LIP_CFD_LF_224_176_N.png,0,0,0,0,3,50,335,50,,,,,,,,,,,,2023-04-07_19h48.09.913,FaceAttractiveness,2022.2.5,144.0036173447666,
treatment,0% Never,100% Always,images\ LCHEEK_006_M_F_N_A.png,0,0,0,0,3,51,336,19,,,,,,,,,,,,2023-04-07_19h48.09.913,FaceAttractiveness,2022.2.5,144.0036173447666,
treatment,0% Never,100% Always,images\ LCHEEK_CFD_LF_224_176_N.png,0,0,0,0,3,52,337,31,,,,,,,,,,,,2023-04-07_19h48.09.913,FaceAttractiveness,2022.2.5,144.0036173447666,
treatment,0% Never,100% Always,images\ LCHEEK_CFD_BM_213_134_N.png,0,0,0,0,3,53,338,29,,,,,,,,,,,,2023-04-07_19h48.09.913,FaceAttractiveness,2022.2.5,144.0036173447666,
treatment,0% Never,100% Always,images\ LIP_087_M_M_N_A.png,0,0,0,0,3,54,339,40,,,,,,,,,,,,2023-04-07_19h48.09.913,FaceAttractiveness,2022.2.5,144.0036173447666,
treatment,0% Never,100% Always,images\ NASALTIP_CFD_AF_231_357_N.png,0,0,0,0,3,55,340,61,,,,,,,,,,,,2023-04-07_19h48.09.913,FaceAttractiveness,2022.2.5,144.0036173447666,
treatment,0% Never,100% Always,images\FOREHEAD_CFD_WF_002_004_N.png,0,0,0,0,3,56,341,15,,,,,,,,,,,,2023-04-07_19h48.09.913,FaceAttractiveness,2022.2.5,144.0036173447666,
treatment,0% Never,100% Always,images\ NASALTIP_CFD_LF_224_176_N.png,0,0,0,0,3,57,342,69,,,,,,,,,,,,2023-04-07_19h48.09.913,FaceAttractiveness,2022.2.5,144.0036173447666,
treatment,0% Never,100% Always,"images\ LIP_CFD_AM_233_236_N.png
",0,0,0,0,3,58,343,45,,,,,,,,,,,,2023-04-07_19h48.09.913,FaceAttractiveness,2022.2.5,144.0036173447666,
treatment,0% Never,100% Always,images\ LCHEEK_CFD_WF_200_099_N.png,0,0,0,0,3,59,344,35,,,,,,,,,,,,2023-04-07_19h48.09.913,FaceAttractiveness,2022.2.5,144.0036173447666,
treatment,0% Never,100% Always,images\ LCHEEK_CFD_WM_212_097_N.png,0,0,0,0,3,60,345,37,,,,,,,,,,,,2023-04-07_19h48.09.913,FaceAttractiveness,2022.2.5,144.0036173447666,
treatment,0% Never,100% Always,images\ RCHEEK_CFD_AF_245_143_N.png,0,0,0,0,3,61,346,82,,,,,,,,,,,,2023-04-07_19h48.09.913,FaceAttractiveness,2022.2.5,144.0036173447666,
treatment,0% Never,100% Always,images\ RCHEEK_CFD_LM_203_026_N.png,0,0,0,0,3,62,347,90,,,,,,,,,,,,2023-04-07_19h48.09.913,FaceAttractiveness,2022.2.5,144.0036173447666,
treatment,0% Never,100% Always,images\ RCHEEK_087_M_M_N_A.png,0,0,0,0,3,63,348,78,,,,,,,,,,,,2023-04-07_19h48.09.913,FaceAttractiveness,2022.2.5,144.0036173447666,
treatment,0% Never,100% Always,"images\ LIP_CFD_BM_234_172_N.png
",0,0,0,0,3,64,349,49,,,,,,,,,,,,2023-04-07_19h48.09.913,FaceAttractiveness,2022.2.5,144.0036173447666,
treatment,0% Never,100% Always,images\ LIP_CFD_WM_212_097_N.png,0,0,0,0,3,65,350,56,,,,,,,,,,,,2023-04-07_19h48.09.913,FaceAttractiveness,2022.2.5,144.0036173447666,
treatment,0% Never,100% Always,images\ NASALTIP_CFD_BF_214_308_N.png,0,0,0,0,3,66,351,65,,,,,,,,,,,,2023-04-07_19h48.09.913,FaceAttractiveness,2022.2.5,144.0036173447666,
treatment,0% Never,100% Always,images\ RCHEEK_CFD_WM_212_097_N.png,0,0,0,0,3,67,352,94,,,,,,,,,,,,2023-04-07_19h48.09.913,FaceAttractiveness,2022.2.5,144.0036173447666,
treatment,0% Never,100% Always,images\ RCHEEK_CFD_AF_237_223_N.png,0,0,0,0,3,68,353,81,,,,,,,,,,,,2023-04-07_19h48.09.913,FaceAttractiveness,2022.2.5,144.0036173447666,
treatment,0% Never,100% Always,images\ LIP_CFD_BF_214_308_N.png,0,0,0,0,3,69,354,46,,,,,,,,,,,,2023-04-07_19h48.09.913,FaceAttractiveness,2022.2.5,144.0036173447666,
treatment,0% Never,100% Always,images\FOREHEAD_CFD_BF_224_002_N.png,0,0,0,0,3,70,355,9,,,,,,,,,,,,2023-04-07_19h48.09.913,FaceAttractiveness,2022.2.5,144.0036173447666,
treatment,0% Never,100% Always,images\ LIP_006_M_F_N_A.png,0,0,0,0,3,71,356,38,,,,,,,,,,,,2023-04-07_19h48.09.913,FaceAttractiveness,2022.2.5,144.0036173447666,
treatment,0% Never,100% Always,images\ NASALTIP_CFD_WM_212_097_N.png,0,0,0,0,3,72,357,75,,,,,,,,,,,,2023-04-07_19h48.09.913,FaceAttractiveness,2022.2.5,144.0036173447666,
treatment,0% Never,100% Always,images\ LIP_CFD_WF_200_099_N.png,0,0,0,0,3,73,358,54,,,,,,,,,,,,2023-04-07_19h48.09.913,FaceAttractiveness,2022.2.5,144.0036173447666,
treatment,0% Never,100% Always,images\FOREHEAD_035_M_F_N_A.png,0,0,0,0,3,74,359,1,,,,,,,,,,,,2023-04-07_19h48.09.913,FaceAttractiveness,2022.2.5,144.0036173447666,
treatment,0% Never,100% Always,images\ RCHEEK_CFD_LF_224_176_N.png,0,0,0,0,3,75,360,88,,,,,,,,,,,,2023-04-07_19h48.09.913,FaceAttractiveness,2022.2.5,144.0036173447666,
treatment,0% Never,100% Always,images\FOREHEAD_CFD_AF_231_357_N.png,0,0,0,0,3,76,361,4,,,,,,,,,,,,2023-04-07_19h48.09.913,FaceAttractiveness,2022.2.5,144.0036173447666,
treatment,0% Never,100% Always,images\ LCHEEK_087_M_M_N_A.png,0,0,0,0,3,77,362,21,,,,,,,,,,,,2023-04-07_19h48.09.913,FaceAttractiveness,2022.2.5,144.0036173447666,
treatment,0% Never,100% Always,images\FOREHEAD_006_M_F_N_A.png,0,0,0,0,3,78,363,0,,,,,,,,,,,,2023-04-07_19h48.09.913,FaceAttractiveness,2022.2.5,144.0036173447666,
treatment,0% Never,100% Always,images\ RCHEEK_CFD_WF_250_167_N.png,0,0,0,0,3,79,364,93,,,,,,,,,,,,2023-04-07_19h48.09.913,FaceAttractiveness,2022.2.5,144.0036173447666,
treatment,0% Never,100% Always,images\FOREHEAD_CFD_WM_212_097_N.png,0,0,0,0,3,80,365,18,,,,,,,,,,,,2023-04-07_19h48.09.913,FaceAttractiveness,2022.2.5,144.0036173447666,
treatment,0% Never,100% Always,images\ NASALTIP_CFD_AF_237_223_N.png,0,0,0,0,3,81,366,62,,,,,,,,,,,,2023-04-07_19h48.09.913,FaceAttractiveness,2022.2.5,144.0036173447666,
treatment,0% Never,100% Always,images\ LCHEEK_CFD_AF_237_223_N.png,0,0,0,0,3,82,367,24,,,,,,,,,,,,2023-04-07_19h48.09.913,FaceAttractiveness,2022.2.5,144.0036173447666,
treatment,0% Never,100% Always,"images\ LCHEEK_CFD_WF_002_004_N.png
",0,0,0,0,3,83,368,34,,,,,,,,,,,,2023-04-07_19h48.09.913,FaceAttractiveness,2022.2.5,144.0036173447666,
treatment,0% Never,100% Always,images\FOREHEAD_CFD_LM_201_057_N.png,0,0,0,0,3,84,369,13,,,,,,,,,,,,2023-04-07_19h48.09.913,FaceAttractiveness,2022.2.5,144.0036173447666,
treatment,0% Never,100% Always,images\ NASALTIP_CFD_WF_200_099_N.png,0,0,0,0,3,85,370,73,,,,,,,,,,,,2023-04-07_19h48.09.913,FaceAttractiveness,2022.2.5,144.0036173447666,
treatment,0% Never,100% Always,images\ RCHEEK_035_M_F_N_A.png,0,0,0,0,3,86,371,77,,,,,,,,,,,,2023-04-07_19h48.09.913,FaceAttractiveness,2022.2.5,144.0036173447666,
treatment,0% Never,100% Always,images\FOREHEAD_CFD_BF_214_308_N.png,0,0,0,0,3,87,372,8,,,,,,,,,,,,2023-04-07_19h48.09.913,FaceAttractiveness,2022.2.5,144.0036173447666,
treatment,0% Never,100% Always,"images\ LIP_CFD_WF_002_004_N.png
",0,0,0,0,3,88,373,53,,,,,,,,,,,,2023-04-07_19h48.09.913,FaceAttractiveness,2022.2.5,144.0036173447666,
treatment,0% Never,100% Always,"images\ RCHEEK_136_M_M_N_A.png
",0,0,0,0,3,89,374,79,,,,,,,,,,,,2023-04-07_19h48.09.913,FaceAttractiveness,2022.2.5,144.0036173447666,
treatment,0% Never,100% Always,images\FOREHEAD_CFD_LF_224_176_N.png,0,0,0,0,3,90,375,12,,,,,,,,,,,,2023-04-07_19h48.09.913,FaceAttractiveness,2022.2.5,144.0036173447666,
treatment,0% Never,100% Always,images\FOREHEAD_CFD_BM_213_134_N.png,0,0,0,0,3,91,376,10,,,,,,,,,,,,2023-04-07_19h48.09.913,FaceAttractiveness,2022.2.5,144.0036173447666,
treatment,0% Never,100% Always,images\ LCHEEK_CFD_WF_250_167_N.png,0,0,0,0,3,92,377,36,,,,,,,,,,,,2023-04-07_19h48.09.913,FaceAttractiveness,2022.2.5,144.0036173447666,
treatment,0% Never,100% Always,images\ LIP_035_M_F_N_A.png,0,0,0,0,3,93,378,39,,,,,,,,,,,,2023-04-07_19h48.09.913,FaceAttractiveness,2022.2.5,144.0036173447666,
treatment,0% Never,100% Always,"images\ NASALTIP_CFD_BM_234_172_N.png
",0,0,0,0,3,94,379,68,,,,,,,,,,,,2023-04-07_19h48.09.913,FaceAttractiveness,2022.2.5,144.0036173447666,
treatment,0% Never,100% Always,images\FOREHEAD_CFD_BM_234_172_N.png,0,0,0,0,4,0,380,11,,,,,,,,,,,,2023-04-07_19h48.09.913,FaceAttractiveness,2022.2.5,144.0036173447666,
treatment,0% Never,100% Always,images\ LIP_CFD_WF_200_099_N.png,0,0,0,0,4,1,381,54,,,,,,,,,,,,2023-04-07_19h48.09.913,FaceAttractiveness,2022.2.5,144.0036173447666,
treatment,0% Never,100% Always,images\FOREHEAD_CFD_AF_231_357_N.png,0,0,0,0,4,2,382,4,,,,,,,,,,,,2023-04-07_19h48.09.913,FaceAttractiveness,2022.2.5,144.0036173447666,
treatment,0% Never,100% Always,"images\ LCHEEK_136_M_M_N_A.png
",0,0,0,0,4,3,383,22,,,,,,,,,,,,2023-04-07_19h48.09.913,FaceAttractiveness,2022.2.5,144.0036173447666,
treatment,0% Never,100% Always,images\ NASALTIP_CFD_LF_224_176_N.png,0,0,0,0,4,4,384,69,,,,,,,,,,,,2023-04-07_19h48.09.913,FaceAttractiveness,2022.2.5,144.0036173447666,
treatment,0% Never,100% Always,images\FOREHEAD_CFD_BF_214_308_N.png,0,0,0,0,4,5,385,8,,,,,,,,,,,,2023-04-07_19h48.09.913,FaceAttractiveness,2022.2.5,144.0036173447666,
treatment,0% Never,100% Always,"images\ RCHEEK_CFD_AM_233_236_N.png
",0,0,0,0,4,6,386,83,,,,,,,,,,,,2023-04-07_19h48.09.913,FaceAttractiveness,2022.2.5,144.0036173447666,
treatment,0% Never,100% Always,images\FOREHEAD_CFD_BM_213_134_N.png,0,0,0,0,4,7,387,10,,,,,,,,,,,,2023-04-07_19h48.09.913,FaceAttractiveness,2022.2.5,144.0036173447666,
treatment,0% Never,100% Always,images\FOREHEAD_CFD_WM_212_097_N.png,0,0,0,0,4,8,388,18,,,,,,,,,,,,2023-04-07_19h48.09.913,FaceAttractiveness,2022.2.5,144.0036173447666,
treatment,0% Never,100% Always,images\ RCHEEK_035_M_F_N_A.png,0,0,0,0,4,9,389,77,,,,,,,,,,,,2023-04-07_19h48.09.913,FaceAttractiveness,2022.2.5,144.0036173447666,
treatment,0% Never,100% Always,"images\ LIP_CFD_AM_233_236_N.png
",0,0,0,0,4,10,390,45,,,,,,,,,,,,2023-04-07_19h48.09.913,FaceAttractiveness,2022.2.5,144.0036173447666,
treatment,0% Never,100% Always,"images\ NASALTIP_CFD_AM_233_236_N.png
",0,0,0,0,4,11,391,64,,,,,,,,,,,,2023-04-07_19h48.09.913,FaceAttractiveness,2022.2.5,144.0036173447666,
treatment,0% Never,100% Always,"images\ LIP_136_M_M_N_A.png
",0,0,0,0,4,12,392,41,,,,,,,,,,,,2023-04-07_19h48.09.913,FaceAttractiveness,2022.2.5,144.0036173447666,
treatment,0% Never,100% Always,images\ RCHEEK_CFD_BM_213_134_N.png,0,0,0,0,4,13,393,86,,,,,,,,,,,,2023-04-07_19h48.09.913,FaceAttractiveness,2022.2.5,144.0036173447666,
treatment,0% Never,100% Always,images\ LCHEEK_006_M_F_N_A.png,0,0,0,0,4,14,394,19,,,,,,,,,,,,2023-04-07_19h48.09.913,FaceAttractiveness,2022.2.5,144.0036173447666,
treatment,0% Never,100% Always,"images\ NASALTIP_CFD_BM_234_172_N.png
",0,0,0,0,4,15,395,68,,,,,,,,,,,,2023-04-07_19h48.09.913,FaceAttractiveness,2022.2.5,144.0036173447666,
treatment,0% Never,100% Always,images\FOREHEAD_CFD_AF_245_143_N.png,0,0,0,0,4,16,396,6,,,,,,,,,,,,2023-04-07_19h48.09.913,FaceAttractiveness,2022.2.5,144.0036173447666,
treatment,0% Never,100% Always,images\ NASALTIP_CFD_WF_200_099_N.png,0,0,0,0,4,17,397,73,,,,,,,,,,,,2023-04-07_19h48.09.913,FaceAttractiveness,2022.2.5,144.0036173447666,
treatment,0% Never,100% Always,images\ LCHEEK_CFD_AF_237_223_N.png,0,0,0,0,4,18,398,24,,,,,,,,,,,,2023-04-07_19h48.09.913,FaceAttractiveness,2022.2.5,144.0036173447666,
treatment,0% Never,100% Always,images\ LIP_035_M_F_N_A.png,0,0,0,0,4,19,399,39,,,,,,,,,,,,2023-04-07_19h48.09.913,FaceAttractiveness,2022.2.5,144.0036173447666,
treatment,0% Never,100% Always,images\ NASALTIP_CFD_AF_231_357_N.png,0,0,0,0,4,20,400,61,,,,,,,,,,,,2023-04-07_19h48.09.913,FaceAttractiveness,2022.2.5,144.0036173447666,
treatment,0% Never,100% Always,images\ RCHEEK_CFD_AF_231_357_N.png,0,0,0,0,4,21,401,80,,,,,,,,,,,,2023-04-07_19h48.09.913,FaceAttractiveness,2022.2.5,144.0036173447666,
treatment,0% Never,100% Always,images\FOREHEAD_CFD_LF_224_176_N.png,0,0,0,0,4,22,402,12,,,,,,,,,,,,2023-04-07_19h48.09.913,FaceAttractiveness,2022.2.5,144.0036173447666,
treatment,0% Never,100% Always,images\FOREHEAD_136_M_M_N_A.png,0,0,0,0,4,23,403,3,,,,,,,,,,,,2023-04-07_19h48.09.913,FaceAttractiveness,2022.2.5,144.0036173447666,
treatment,0% Never,100% Always,"images\ RCHEEK_CFD_WF_002_004_N.png
",0,0,0,0,4,24,404,91,,,,,,,,,,,,2023-04-07_19h48.09.913,FaceAttractiveness,2022.2.5,144.0036173447666,
treatment,0% Never,100% Always,"images\ NASALTIP_CFD_WF_002_004_N.png
",0,0,0,0,4,25,405,72,,,,,,,,,,,,2023-04-07_19h48.09.913,FaceAttractiveness,2022.2.5,144.0036173447666,
treatment,0% Never,100% Always,images\ RCHEEK_CFD_WF_250_167_N.png,0,0,0,0,4,26,406,93,,,,,,,,,,,,2023-04-07_19h48.09.913,FaceAttractiveness,2022.2.5,144.0036173447666,
treatment,0% Never,100% Always,images\FOREHEAD_CFD_AM_233_236_N.png,0,0,0,0,4,27,407,7,,,,,,,,,,,,2023-04-07_19h48.09.913,FaceAttractiveness,2022.2.5,144.0036173447666,
treatment,0% Never,100% Always,images\FOREHEAD_CFD_AF_237_223_N.png,0,0,0,0,4,28,408,5,,,,,,,,,,,,2023-04-07_19h48.09.913,FaceAttractiveness,2022.2.5,144.0036173447666,
treatment,0% Never,100% Always,images\ LIP_CFD_LM_201_057_N.png,0,0,0,0,4,29,409,51,,,,,,,,,,,,2023-04-07_19h48.09.913,FaceAttractiveness,2022.2.5,144.0036173447666,
treatment,0% Never,100% Always,images\ NASALTIP_CFD_AF_237_223_N.png,0,0,0,0,4,30,410,62,,,,,,,,,,,,2023-04-07_19h48.09.913,FaceAttractiveness,2022.2.5,144.0036173447666,
treatment,0% Never,100% Always,images\ LIP_CFD_BM_213_134_N.png,0,0,0,0,4,31,411,48,,,,,,,,,,,,2023-04-07_19h48.09.913,FaceAttractiveness,2022.2.5,144.0036173447666,
treatment,0% Never,100% Always,images\ RCHEEK_CFD_LF_224_176_N.png,0,0,0,0,4,32,412,88,,,,,,,,,,,,2023-04-07_19h48.09.913,FaceAttractiveness,2022.2.5,144.0036173447666,
treatment,0% Never,100% Always,images\FOREHEAD_CFD_WF_002_004_N.png,0,0,0,0,4,33,413,15,,,,,,,,,,,,2023-04-07_19h48.09.913,FaceAttractiveness,2022.2.5,144.0036173447666,
treatment,0% Never,100% Always,images\ LCHEEK_CFD_AF_245_143_N.png,0,0,0,0,4,34,414,25,,,,,,,,,,,,2023-04-07_19h48.09.913,FaceAttractiveness,2022.2.5,144.0036173447666,
treatment,0% Never,100% Always,images\ LIP_087_M_M_N_A.png,0,0,0,0,4,35,415,40,,,,,,,,,,,,2023-04-07_19h48.09.913,FaceAttractiveness,2022.2.5,144.0036173447666,
treatment,0% Never,100% Always,images\FOREHEAD_CFD_BF_224_002_N.png,0,0,0,0,4,36,416,9,,,,,,,,,,,,2023-04-07_19h48.09.913,FaceAttractiveness,2022.2.5,144.0036173447666,
treatment,0% Never,100% Always,images\ RCHEEK_CFD_AF_245_143_N.png,0,0,0,0,4,37,417,82,,,,,,,,,,,,2023-04-07_19h48.09.913,FaceAttractiveness,2022.2.5,144.0036173447666,
treatment,0% Never,100% Always,images\ LCHEEK_035_M_F_N_A.png,0,0,0,0,4,38,418,20,,,,,,,,,,,,2023-04-07_19h48.09.913,FaceAttractiveness,2022.2.5,144.0036173447666,
treatment,0% Never,100% Always,images\ LIP_CFD_BF_224_002_N.png,0,0,0,0,4,39,419,47,,,,,,,,,,,,2023-04-07_19h48.09.913,FaceAttractiveness,2022.2.5,144.0036173447666,
treatment,0% Never,100% Always,images\ NASALTIP_CFD_BF_214_308_N.png,0,0,0,0,4,40,420,65,,,,,,,,,,,,2023-04-07_19h48.09.913,FaceAttractiveness,2022.2.5,144.0036173447666,
treatment,0% Never,100% Always,images\ RCHEEK_CFD_WM_212_097_N.png,0,0,0,0,4,41,421,94,,,,,,,,,,,,2023-04-07_19h48.09.913,FaceAttractiveness,2022.2.5,144.0036173447666,
treatment,0% Never,100% Always,images\ LIP_CFD_AF_245_143_N.png,0,0,0,0,4,42,422,44,,,,,,,,,,,,2023-04-07_19h48.09.913,FaceAttractiveness,2022.2.5,144.0036173447666,
treatment,0% Never,100% Always,images\FOREHEAD_CFD_LM_201_057_N.png,0,0,0,0,4,43,423,13,,,,,,,,,,,,2023-04-07_19h48.09.913,FaceAttractiveness,2022.2.5,144.0036173447666,
treatment,0% Never,100% Always,images\ NASALTIP_CFD_WF_250_167_N.png,0,0,0,0,4,44,424,74,,,,,,,,,,,,2023-04-07_19h48.09.913,FaceAttractiveness,2022.2.5,144.0036173447666,
treatment,0% Never,100% Always,"images\ LCHEEK_CFD_WF_002_004_N.png
",0,0,0,0,4,45,425,34,,,,,,,,,,,,2023-04-07_19h48.09.913,FaceAttractiveness,2022.2.5,144.0036173447666,
treatment,0% Never,100% Always,"images\ NASALTIP_136_M_M_N_A.png
",0,0,0,0,4,46,426,60,,,,,,,,,,,,2023-04-07_19h48.09.913,FaceAttractiveness,2022.2.5,144.0036173447666,
treatment,0% Never,100% Always,images\ NASALTIP_CFD_BF_224_002_N.png,0,0,0,0,4,47,427,66,,,,,,,,,,,,2023-04-07_19h48.09.913,FaceAttractiveness,2022.2.5,144.0036173447666,
treatment,0% Never,100% Always,images\ RCHEEK_CFD_AF_237_223_N.png,0,0,0,0,4,48,428,81,,,,,,,,,,,,2023-04-07_19h48.09.913,FaceAttractiveness,2022.2.5,144.0036173447666,
treatment,0% Never,100% Always,images\ LIP_CFD_AF_237_223_N.png,0,0,0,0,4,49,429,43,,,,,,,,,,,,2023-04-07_19h48.09.913,FaceAttractiveness,2022.2.5,144.0036173447666,
treatment,0% Never,100% Always,images\ LIP_006_M_F_N_A.png,0,0,0,0,4,50,430,38,,,,,,,,,,,,2023-04-07_19h48.09.913,FaceAttractiveness,2022.2.5,144.0036173447666,
treatment,0% Never,100% Always,images\ LCHEEK_CFD_WF_250_167_N.png,0,0,0,0,4,51,431,36,,,,,,,,,,,,2023-04-07_19h48.09.913,FaceAttractiveness,2022.2.5,144.0036173447666,
treatment,0% Never,100% Always,images\ LCHEEK_CFD_BF_224_002_N.png,0,0,0,0,4,52,432,28,,,,,,,,,,,,2023-04-07_19h48.09.913,FaceAttractiveness,2022.2.5,144.0036173447666,
treatment,0% Never,100% Always,images\ NASALTIP_CFD_AF_245_143_N.png,0,0,0,0,4,53,433,63,,,,,,,,,,,,2023-04-07_19h48.09.913,FaceAttractiveness,2022.2.5,144.0036173447666,
treatment,0% Never,100% Always,images\ RCHEEK_CFD_LM_201_057_N.png,0,0,0,0,4,54,434,89,,,,,,,,,,,,2023-04-07_19h48.09.913,FaceAttractiveness,2022.2.5,144.0036173447666,
treatment,0% Never,100% Always,"images\ RCHEEK_CFD_BM_234_172_N.png
",0,0,0,0,4,55,435,87,,,,,,,,,,,,2023-04-07_19h48.09.913,FaceAttractiveness,2022.2.5,144.0036173447666,
treatment,0% Never,100% Always,images\FOREHEAD_CFD_WF_200_099_N.png,0,0,0,0,4,56,436,16,,,,,,,,,,,,2023-04-07_19h48.09.913,FaceAttractiveness,2022.2.5,144.0036173447666,
treatment,0% Never,100% Always,images\ LIP_CFD_LF_224_176_N.png,0,0,0,0,4,57,437,50,,,,,,,,,,,,2023-04-07_19h48.09.913,FaceAttractiveness,2022.2.5,144.0036173447666,
treatment,0% Never,100% Always,images\ RCHEEK_CFD_WF_200_099_N.png,0,0,0,0,4,58,438,92,,,,,,,,,,,,2023-04-07_19h48.09.913,FaceAttractiveness,2022.2.5,144.0036173447666,
treatment,0% Never,100% Always,images\ LCHEEK_CFD_BM_213_134_N.png,0,0,0,0,4,59,439,29,,,,,,,,,,,,2023-04-07_19h48.09.913,FaceAttractiveness,2022.2.5,144.0036173447666,
treatment,0% Never,100% Always,images\ RCHEEK_087_M_M_N_A.png,0,0,0,0,4,60,440,78,,,,,,,,,,,,2023-04-07_19h48.09.913,FaceAttractiveness,2022.2.5,144.0036173447666,
treatment,0% Never,100% Always,images\ NASALTIP_006_M_F_N_A.png,0,0,0,0,4,61,441,57,,,,,,,,,,,,2023-04-07_19h48.09.913,FaceAttractiveness,2022.2.5,144.0036173447666,
treatment,0% Never,100% Always,images\ LCHEEK_CFD_BF_214_308_N.png,0,0,0,0,4,62,442,27,,,,,,,,,,,,2023-04-07_19h48.09.913,FaceAttractiveness,2022.2.5,144.0036173447666,
treatment,0% Never,100% Always,images\ LCHEEK_087_M_M_N_A.png,0,0,0,0,4,63,443,21,,,,,,,,,,,,2023-04-07_19h48.09.913,FaceAttractiveness,2022.2.5,144.0036173447666,
treatment,0% Never,100% Always,"images\ LCHEEK_CFD_AM_233_236_N.png
",0,0,0,0,4,64,444,26,,,,,,,,,,,,2023-04-07_19h48.09.913,FaceAttractiveness,2022.2.5,144.0036173447666,
treatment,0% Never,100% Always,"images\ RCHEEK_136_M_M_N_A.png
",0,0,0,0,4,65,445,79,,,,,,,,,,,,2023-04-07_19h48.09.913,FaceAttractiveness,2022.2.5,144.0036173447666,
treatment,0% Never,100% Always,images\ LIP_CFD_LM_203_026_N.png,0,0,0,0,4,66,446,52,,,,,,,,,,,,2023-04-07_19h48.09.913,FaceAttractiveness,2022.2.5,144.0036173447666,
treatment,0% Never,100% Always,images\ LIP_CFD_BF_214_308_N.png,0,0,0,0,4,67,447,46,,,,,,,,,,,,2023-04-07_19h48.09.913,FaceAttractiveness,2022.2.5,144.0036173447666,
treatment,0% Never,100% Always,"images\ LCHEEK_CFD_BM_234_172_N.png
",0,0,0,0,4,68,448,30,,,,,,,,,,,,2023-04-07_19h48.09.913,FaceAttractiveness,2022.2.5,144.0036173447666,
treatment,0% Never,100% Always,images\ LIP_CFD_WF_250_167_N.png,0,0,0,0,4,69,449,55,,,,,,,,,,,,2023-04-07_19h48.09.913,FaceAttractiveness,2022.2.5,144.0036173447666,
treatment,0% Never,100% Always,images\ LCHEEK_CFD_LF_224_176_N.png,0,0,0,0,4,70,450,31,,,,,,,,,,,,2023-04-07_19h48.09.913,FaceAttractiveness,2022.2.5,144.0036173447666,
treatment,0% Never,100% Always,images\ NASALTIP_CFD_LM_203_026_N.png,0,0,0,0,4,71,451,71,,,,,,,,,,,,2023-04-07_19h48.09.913,FaceAttractiveness,2022.2.5,144.0036173447666,
treatment,0% Never,100% Always,images\FOREHEAD_035_M_F_N_A.png,0,0,0,0,4,72,452,1,,,,,,,,,,,,2023-04-07_19h48.09.913,FaceAttractiveness,2022.2.5,144.0036173447666,
treatment,0% Never,100% Always,images\ LIP_CFD_AF_231_357_N.png,0,0,0,0,4,73,453,42,,,,,,,,,,,,2023-04-07_19h48.09.913,FaceAttractiveness,2022.2.5,144.0036173447666,
treatment,0% Never,100% Always,images\FOREHEAD_006_M_F_N_A.png,0,0,0,0,4,74,454,0,,,,,,,,,,,,2023-04-07_19h48.09.913,FaceAttractiveness,2022.2.5,144.0036173447666,
treatment,0% Never,100% Always,images\ LCHEEK_CFD_WM_212_097_N.png,0,0,0,0,4,75,455,37,,,,,,,,,,,,2023-04-07_19h48.09.913,FaceAttractiveness,2022.2.5,144.0036173447666,
treatment,0% Never,100% Always,images\ RCHEEK_006_M_F_N_A.png,0,0,0,0,4,76,456,76,,,,,,,,,,,,2023-04-07_19h48.09.913,FaceAttractiveness,2022.2.5,144.0036173447666,
treatment,0% Never,100% Always,images\ LCHEEK_CFD_AF_231_357_N.png,0,0,0,0,4,77,457,23,,,,,,,,,,,,2023-04-07_19h48.09.913,FaceAttractiveness,2022.2.5,144.0036173447666,
treatment,0% Never,100% Always,images\ LIP_CFD_WM_212_097_N.png,0,0,0,0,4,78,458,56,,,,,,,,,,,,2023-04-07_19h48.09.913,FaceAttractiveness,2022.2.5,144.0036173447666,
treatment,0% Never,100% Always,images\ NASALTIP_035_M_F_N_A.png,0,0,0,0,4,79,459,58,,,,,,,,,,,,2023-04-07_19h48.09.913,FaceAttractiveness,2022.2.5,144.0036173447666,
treatment,0% Never,100% Always,images\ NASALTIP_087_M_M_N_A.png,0,0,0,0,4,80,460,59,,,,,,,,,,,,2023-04-07_19h48.09.913,FaceAttractiveness,2022.2.5,144.0036173447666,
treatment,0% Never,100% Always,images\ RCHEEK_CFD_BF_224_002_N.png,0,0,0,0,4,81,461,85,,,,,,,,,,,,2023-04-07_19h48.09.913,FaceAttractiveness,2022.2.5,144.0036173447666,
treatment,0% Never,100% Always,images\ LCHEEK_CFD_LM_201_057_N.png,0,0,0,0,4,82,462,32,,,,,,,,,,,,2023-04-07_19h48.09.913,FaceAttractiveness,2022.2.5,144.0036173447666,
treatment,0% Never,100% Always,"images\ LIP_CFD_WF_002_004_N.png
",0,0,0,0,4,83,463,53,,,,,,,,,,,,2023-04-07_19h48.09.913,FaceAttractiveness,2022.2.5,144.0036173447666,
treatment,0% Never,100% Always,images\ LCHEEK_CFD_WF_200_099_N.png,0,0,0,0,4,84,464,35,,,,,,,,,,,,2023-04-07_19h48.09.913,FaceAttractiveness,2022.2.5,144.0036173447666,
treatment,0% Never,100% Always,images\FOREHEAD_CFD_WF_250_167_N.png,0,0,0,0,4,85,465,17,,,,,,,,,,,,2023-04-07_19h48.09.913,FaceAttractiveness,2022.2.5,144.0036173447666,
treatment,0% Never,100% Always,"images\ LIP_CFD_BM_234_172_N.png
",0,0,0,0,4,86,466,49,,,,,,,,,,,,2023-04-07_19h48.09.913,FaceAttractiveness,2022.2.5,144.0036173447666,
treatment,0% Never,100% Always,images\ NASALTIP_CFD_BM_213_134_N.png,0,0,0,0,4,87,467,67,,,,,,,,,,,,2023-04-07_19h48.09.913,FaceAttractiveness,2022.2.5,144.0036173447666,
treatment,0% Never,100% Always,images\ NASALTIP_CFD_LM_201_057_N.png,0,0,0,0,4,88,468,70,,,,,,,,,,,,2023-04-07_19h48.09.913,FaceAttractiveness,2022.2.5,144.0036173447666,
treatment,0% Never,100% Always,images\ LCHEEK_CFD_LM_203_026_N.png,0,0,0,0,4,89,469,33,,,,,,,,,,,,2023-04-07_19h48.09.913,FaceAttractiveness,2022.2.5,144.0036173447666,
treatment,0% Never,100% Always,images\ NASALTIP_CFD_WM_212_097_N.png,0,0,0,0,4,90,470,75,,,,,,,,,,,,2023-04-07_19h48.09.913,FaceAttractiveness,2022.2.5,144.0036173447666,
treatment,0% Never,100% Always,images\FOREHEAD_087_M_M_N_A.png,0,0,0,0,4,91,471,2,,,,,,,,,,,,2023-04-07_19h48.09.913,FaceAttractiveness,2022.2.5,144.0036173447666,
treatment,0% Never,100% Always,images\ RCHEEK_CFD_BF_214_308_N.png,0,0,0,0,4,92,472,84,,,,,,,,,,,,2023-04-07_19h48.09.913,FaceAttractiveness,2022.2.5,144.0036173447666,
treatment,0% Never,100% Always,images\FOREHEAD_CFD_LM_203_026_N.png,0,0,0,0,4,93,473,14,,,,,,,,,,,,2023-04-07_19h48.09.913,FaceAttractiveness,2022.2.5,144.0036173447666,
treatment,0% Never,100% Always,images\ RCHEEK_CFD_LM_203_026_N.png,0,0,0,0,4,94,474,90,,,,,,,,,,,,2023-04-07_19h48.09.913,FaceAttractiveness,2022.2.5,144.0036173447666,
treatment,0% Never,100% Always,images\ LIP_CFD_AF_231_357_N.png,0,0,0,0,5,0,475,42,,,,,,,,,,,,2023-04-07_19h48.09.913,FaceAttractiveness,2022.2.5,144.0036173447666,
treatment,0% Never,100% Always,images\ LCHEEK_CFD_WF_200_099_N.png,0,0,0,0,5,1,476,35,,,,,,,,,,,,2023-04-07_19h48.09.913,FaceAttractiveness,2022.2.5,144.0036173447666,
treatment,0% Never,100% Always,images\FOREHEAD_CFD_BF_224_002_N.png,0,0,0,0,5,2,477,9,,,,,,,,,,,,2023-04-07_19h48.09.913,FaceAttractiveness,2022.2.5,144.0036173447666,
treatment,0% Never,100% Always,images\ LCHEEK_CFD_AF_231_357_N.png,0,0,0,0,5,3,478,23,,,,,,,,,,,,2023-04-07_19h48.09.913,FaceAttractiveness,2022.2.5,144.0036173447666,
treatment,0% Never,100% Always,images\FOREHEAD_CFD_LF_224_176_N.png,0,0,0,0,5,4,479,12,,,,,,,,,,,,2023-04-07_19h48.09.913,FaceAttractiveness,2022.2.5,144.0036173447666,
treatment,0% Never,100% Always,images\ NASALTIP_CFD_WF_200_099_N.png,0,0,0,0,5,5,480,73,,,,,,,,,,,,2023-04-07_19h48.09.913,FaceAttractiveness,2022.2.5,144.0036173447666,
treatment,0% Never,100% Always,images\ NASALTIP_CFD_AF_237_223_N.png,0,0,0,0,5,6,481,62,,,,,,,,,,,,2023-04-07_19h48.09.913,FaceAttractiveness,2022.2.5,144.0036173447666,
treatment,0% Never,100% Always,"images\ NASALTIP_CFD_BM_234_172_N.png
",0,0,0,0,5,7,482,68,,,,,,,,,,,,2023-04-07_19h48.09.913,FaceAttractiveness,2022.2.5,144.0036173447666,
treatment,0% Never,100% Always,images\ LCHEEK_CFD_WF_250_167_N.png,0,0,0,0,5,8,483,36,,,,,,,,,,,,2023-04-07_19h48.09.913,FaceAttractiveness,2022.2.5,144.0036173447666,
treatment,0% Never,100% Always,images\ LIP_CFD_LM_201_057_N.png,0,0,0,0,5,9,484,51,,,,,,,,,,,,2023-04-07_19h48.09.913,FaceAttractiveness,2022.2.5,144.0036173447666,
treatment,0% Never,100% Always,images\FOREHEAD_CFD_WF_200_099_N.png,0,0,0,0,5,10,485,16,,,,,,,,,,,,2023-04-07_19h48.09.913,FaceAttractiveness,2022.2.5,144.0036173447666,
treatment,0% Never,100% Always,images\ NASALTIP_CFD_BF_224_002_N.png,0,0,0,0,5,11,486,66,,,,,,,,,,,,2023-04-07_19h48.09.913,FaceAttractiveness,2022.2.5,144.0036173447666,
treatment,0% Never,100% Always,images\FOREHEAD_CFD_LM_203_026_N.png,0,0,0,0,5,12,487,14,,,,,,,,,,,,2023-04-07_19h48.09.913,FaceAttractiveness,2022.2.5,144.0036173447666,
treatment,0% Never,100% Always,images\ RCHEEK_CFD_WF_200_099_N.png,0,0,0,0,5,13,488,92,,,,,,,,,,,,2023-04-07_19h48.09.913,FaceAttractiveness,2022.2.5,144.0036173447666,
treatment,0% Never,100% Always,images\ RCHEEK_CFD_LF_224_176_N.png,0,0,0,0,5,14,489,88,,,,,,,,,,,,2023-04-07_19h48.09.913,FaceAttractiveness,2022.2.5,144.0036173447666,
treatment,0% Never,100% Always,images\ NASALTIP_CFD_BF_214_308_N.png,0,0,0,0,5,15,490,65,,,,,,,,,,,,2023-04-07_19h48.09.913,FaceAttractiveness,2022.2.5,144.0036173447666,
treatment,0% Never,100% Always,images\ NASALTIP_CFD_AF_245_143_N.png,0,0,0,0,5,16,491,63,,,,,,,,,,,,2023-04-07_19h48.09.913,FaceAttractiveness,2022.2.5,144.0036173447666,
treatment,0% Never,100% Always,images\ RCHEEK_CFD_WF_250_167_N.png,0,0,0,0,5,17,492,93,,,,,,,,,,,,2023-04-07_19h48.09.913,FaceAttractiveness,2022.2.5,144.0036173447666,
treatment,0% Never,100% Always,images\FOREHEAD_136_M_M_N_A.png,0,0,0,0,5,18,493,3,,,,,,,,,,,,2023-04-07_19h48.09.913,FaceAttractiveness,2022.2.5,144.0036173447666,
treatment,0% Never,100% Always,images\ LIP_CFD_AF_245_143_N.png,0,0,0,0,5,19,494,44,,,,,,,,,,,,2023-04-07_19h48.09.913,FaceAttractiveness,2022.2.5,144.0036173447666,
treatment,0% Never,100% Always,images\FOREHEAD_087_M_M_N_A.png,0,0,0,0,5,20,495,2,,,,,,,,,,,,2023-04-07_19h48.09.913,FaceAttractiveness,2022.2.5,144.0036173447666,
treatment,0% Never,100% Always,"images\ LCHEEK_136_M_M_N_A.png
",0,0,0,0,5,21,496,22,,,,,,,,,,,,2023-04-07_19h48.09.913,FaceAttractiveness,2022.2.5,144.0036173447666,
treatment,0% Never,100% Always,images\ LCHEEK_CFD_AF_245_143_N.png,0,0,0,0,5,22,497,25,,,,,,,,,,,,2023-04-07_19h48.09.913,FaceAttractiveness,2022.2.5,144.0036173447666,
treatment,0% Never,100% Always,images\ LIP_087_M_M_N_A.png,0,0,0,0,5,23,498,40,,,,,,,,,,,,2023-04-07_19h48.09.913,FaceAttractiveness,2022.2.5,144.0036173447666,
treatment,0% Never,100% Always,images\FOREHEAD_CFD_BM_234_172_N.png,0,0,0,0,5,24,499,11,,,,,,,,,,,,2023-04-07_19h48.09.913,FaceAttractiveness,2022.2.5,144.0036173447666,
treatment,0% Never,100% Always,"images\ NASALTIP_CFD_WF_002_004_N.png
",0,0,0,0,5,25,500,72,,,,,,,,,,,,2023-04-07_19h48.09.913,FaceAttractiveness,2022.2.5,144.0036173447666,
treatment,0% Never,100% Always,images\ NASALTIP_006_M_F_N_A.png,0,0,0,0,5,26,501,57,,,,,,,,,,,,2023-04-07_19h48.09.913,FaceAttractiveness,2022.2.5,144.0036173447666,
treatment,0% Never,100% Always,images\ NASALTIP_087_M_M_N_A.png,0,0,0,0,5,27,502,59,,,,,,,,,,,,2023-04-07_19h48.09.913,FaceAttractiveness,2022.2.5,144.0036173447666,
treatment,0% Never,100% Always,"images\ LIP_136_M_M_N_A.png
",0,0,0,0,5,28,503,41,,,,,,,,,,,,2023-04-07_19h48.09.913,FaceAttractiveness,2022.2.5,144.0036173447666,
treatment,0% Never,100% Always,"images\ RCHEEK_CFD_AM_233_236_N.png
",0,0,0,0,5,29,504,83,,,,,,,,,,,,2023-04-07_19h48.09.913,FaceAttractiveness,2022.2.5,144.0036173447666,
treatment,0% Never,100% Always,images\FOREHEAD_035_M_F_N_A.png,0,0,0,0,5,30,505,1,,,,,,,,,,,,2023-04-07_19h48.09.913,FaceAttractiveness,2022.2.5,144.0036173447666,
treatment,0% Never,100% Always,images\ LIP_CFD_WF_250_167_N.png,0,0,0,0,5,31,506,55,,,,,,,,,,,,2023-04-07_19h48.09.913,FaceAttractiveness,2022.2.5,144.0036173447666,
treatment,0% Never,100% Always,images\FOREHEAD_CFD_BM_213_134_N.png,0,0,0,0,5,32,507,10,,,,,,,,,,,,2023-04-07_19h48.09.913,FaceAttractiveness,2022.2.5,144.0036173447666,
treatment,0% Never,100% Always,images\FOREHEAD_CFD_AF_231_357_N.png,0,0,0,0,5,33,508,4,,,,,,,,,,,,2023-04-07_19h48.09.913,FaceAttractiveness,2022.2.5,144.0036173447666,
treatment,0% Never,100% Always,images\ NASALTIP_CFD_LM_203_026_N.png,0,0,0,0,5,34,509,71,,,,,,,,,,,,2023-04-07_19h48.09.913,FaceAttractiveness,2022.2.5,144.0036173447666,
treatment,0% Never,100% Always,images\ NASALTIP_CFD_LF_224_176_N.png,0,0,0,0,5,35,510,69,,,,,,,,,,,,2023-04-07_19h48.09.913,FaceAttractiveness,2022.2.5,144.0036173447666,
treatment,0% Never,100% Always,images\FOREHEAD_CFD_BF_214_308_N.png,0,0,0,0,5,36,511,8,,,,,,,,,,,,2023-04-07_19h48.09.913,FaceAttractiveness,2022.2.5,144.0036173447666,
treatment,0% Never,100% Always,images\ NASALTIP_CFD_BM_213_134_N.png,0,0,0,0,5,37,512,67,,,,,,,,,,,,2023-04-07_19h48.09.913,FaceAttractiveness,2022.2.5,144.0036173447666,
treatment,0% Never,100% Always,images\ LIP_CFD_WF_200_099_N.png,0,0,0,0,5,38,513,54,,,,,,,,,,,,2023-04-07_19h48.09.913,FaceAttractiveness,2022.2.5,144.0036173447666,
treatment,0% Never,100% Always,images\ LCHEEK_006_M_F_N_A.png,0,0,0,0,5,39,514,19,,,,,,,,,,,,2023-04-07_19h48.09.913,FaceAttractiveness,2022.2.5,144.0036173447666,
treatment,0% Never,100% Always,"images\ LCHEEK_CFD_WF_002_004_N.png
",0,0,0,0,5,40,515,34,,,,,,,,,,,,2023-04-07_19h48.09.913,FaceAttractiveness,2022.2.5,144.0036173447666,
treatment,0% Never,100% Always,"images\ LCHEEK_CFD_AM_233_236_N.png
",0,0,0,0,5,41,516,26,,,,,,,,,,,,2023-04-07_19h48.09.913,FaceAttractiveness,2022.2.5,144.0036173447666,
treatment,0% Never,100% Always,images\ RCHEEK_CFD_BF_214_308_N.png,0,0,0,0,5,42,517,84,,,,,,,,,,,,2023-04-07_19h48.09.913,FaceAttractiveness,2022.2.5,144.0036173447666,
treatment,0% Never,100% Always,images\ LIP_CFD_AF_237_223_N.png,0,0,0,0,5,43,518,43,,,,,,,,,,,,2023-04-07_19h48.09.913,FaceAttractiveness,2022.2.5,144.0036173447666,
treatment,0% Never,100% Always,images\ RCHEEK_CFD_LM_201_057_N.png,0,0,0,0,5,44,519,89,,,,,,,,,,,,2023-04-07_19h48.09.913,FaceAttractiveness,2022.2.5,144.0036173447666,
treatment,0% Never,100% Always,images\ RCHEEK_CFD_WM_212_097_N.png,0,0,0,0,5,45,520,94,,,,,,,,,,,,2023-04-07_19h48.09.913,FaceAttractiveness,2022.2.5,144.0036173447666,
treatment,0% Never,100% Always,images\ LIP_035_M_F_N_A.png,0,0,0,0,5,46,521,39,,,,,,,,,,,,2023-04-07_19h48.09.913,FaceAttractiveness,2022.2.5,144.0036173447666,
treatment,0% Never,100% Always,images\ LCHEEK_CFD_WM_212_097_N.png,0,0,0,0,5,47,522,37,,,,,,,,,,,,2023-04-07_19h48.09.913,FaceAttractiveness,2022.2.5,144.0036173447666,
treatment,0% Never,100% Always,images\ LIP_006_M_F_N_A.png,0,0,0,0,5,48,523,38,,,,,,,,,,,,2023-04-07_19h48.09.913,FaceAttractiveness,2022.2.5,144.0036173447666,
treatment,0% Never,100% Always,"images\ LCHEEK_CFD_BM_234_172_N.png
",0,0,0,0,5,49,524,30,,,,,,,,,,,,2023-04-07_19h48.09.913,FaceAttractiveness,2022.2.5,144.0036173447666,
treatment,0% Never,100% Always,images\ LCHEEK_CFD_BF_214_308_N.png,0,0,0,0,5,50,525,27,,,,,,,,,,,,2023-04-07_19h48.09.913,FaceAttractiveness,2022.2.5,144.0036173447666,
treatment,0% Never,100% Always,images\ RCHEEK_035_M_F_N_A.png,0,0,0,0,5,51,526,77,,,,,,,,,,,,2023-04-07_19h48.09.913,FaceAttractiveness,2022.2.5,144.0036173447666,
treatment,0% Never,100% Always,images\ RCHEEK_CFD_BM_213_134_N.png,0,0,0,0,5,52,527,86,,,,,,,,,,,,2023-04-07_19h48.09.913,FaceAttractiveness,2022.2.5,144.0036173447666,
treatment,0% Never,100% Always,images\ LCHEEK_CFD_BM_213_134_N.png,0,0,0,0,5,53,528,29,,,,,,,,,,,,2023-04-07_19h48.09.913,FaceAttractiveness,2022.2.5,144.0036173447666,
treatment,0% Never,100% Always,"images\ LIP_CFD_WF_002_004_N.png
",0,0,0,0,5,54,529,53,,,,,,,,,,,,2023-04-07_19h48.09.913,FaceAttractiveness,2022.2.5,144.0036173447666,
treatment,0% Never,100% Always,images\ LCHEEK_087_M_M_N_A.png,0,0,0,0,5,55,530,21,,,,,,,,,,,,2023-04-07_19h48.09.913,FaceAttractiveness,2022.2.5,144.0036173447666,
treatment,0% Never,100% Always,images\ LCHEEK_CFD_LM_201_057_N.png,0,0,0,0,5,56,531,32,,,,,,,,,,,,2023-04-07_19h48.09.913,FaceAttractiveness,2022.2.5,144.0036173447666,
treatment,0% Never,100% Always,images\ LIP_CFD_BM_213_134_N.png,0,0,0,0,5,57,532,48,,,,,,,,,,,,2023-04-07_19h48.09.913,FaceAttractiveness,2022.2.5,144.0036173447666,
treatment,0% Never,100% Always,images\FOREHEAD_CFD_WM_212_097_N.png,0,0,0,0,5,58,533,18,,,,,,,,,,,,2023-04-07_19h48.09.913,FaceAttractiveness,2022.2.5,144.0036173447666,
treatment,0% Never,100% Always,images\ NASALTIP_CFD_WM_212_097_N.png,0,0,0,0,5,59,534,75,,,,,,,,,,,,2023-04-07_19h48.09.913,FaceAttractiveness,2022.2.5,144.0036173447666,
treatment,0% Never,100% Always,"images\ RCHEEK_CFD_BM_234_172_N.png
",0,0,0,0,5,60,535,87,,,,,,,,,,,,2023-04-07_19h48.09.913,FaceAttractiveness,2022.2.5,144.0036173447666,
treatment,0% Never,100% Always,images\ RCHEEK_CFD_LM_203_026_N.png,0,0,0,0,5,61,536,90,,,,,,,,,,,,2023-04-07_19h48.09.913,FaceAttractiveness,2022.2.5,144.0036173447666,
treatment,0% Never,100% Always,"images\ RCHEEK_136_M_M_N_A.png
",0,0,0,0,5,62,537,79,,,,,,,,,,,,2023-04-07_19h48.09.913,FaceAttractiveness,2022.2.5,144.0036173447666,
treatment,0% Never,100% Always,images\ LCHEEK_035_M_F_N_A.png,0,0,0,0,5,63,538,20,,,,,,,,,,,,2023-04-07_19h48.09.913,FaceAttractiveness,2022.2.5,144.0036173447666,
treatment,0% Never,100% Always,images\ LCHEEK_CFD_BF_224_002_N.png,0,0,0,0,5,64,539,28,,,,,,,,,,,,2023-04-07_19h48.09.913,FaceAttractiveness,2022.2.5,144.0036173447666,
treatment,0% Never,100% Always,images\ LCHEEK_CFD_LF_224_176_N.png,0,0,0,0,5,65,540,31,,,,,,,,,,,,2023-04-07_19h48.09.913,FaceAttractiveness,2022.2.5,144.0036173447666,
treatment,0% Never,100% Always,"images\ LIP_CFD_AM_233_236_N.png
",0,0,0,0,5,66,541,45,,,,,,,,,,,,2023-04-07_19h48.09.913,FaceAttractiveness,2022.2.5,144.0036173447666,
treatment,0% Never,100% Always,images\ LIP_CFD_BF_224_002_N.png,0,0,0,0,5,67,542,47,,,,,,,,,,,,2023-04-07_19h48.09.913,FaceAttractiveness,2022.2.5,144.0036173447666,
treatment,0% Never,100% Always,images\ RCHEEK_CFD_BF_224_002_N.png,0,0,0,0,5,68,543,85,,,,,,,,,,,,2023-04-07_19h48.09.913,FaceAttractiveness,2022.2.5,144.0036173447666,
treatment,0% Never,100% Always,images\ RCHEEK_CFD_AF_231_357_N.png,0,0,0,0,5,69,544,80,,,,,,,,,,,,2023-04-07_19h48.09.913,FaceAttractiveness,2022.2.5,144.0036173447666,
treatment,0% Never,100% Always,images\ LIP_CFD_LM_203_026_N.png,0,0,0,0,5,70,545,52,,,,,,,,,,,,2023-04-07_19h48.09.913,FaceAttractiveness,2022.2.5,144.0036173447666,
treatment,0% Never,100% Always,images\FOREHEAD_CFD_LM_201_057_N.png,0,0,0,0,5,71,546,13,,,,,,,,,,,,2023-04-07_19h48.09.913,FaceAttractiveness,2022.2.5,144.0036173447666,
treatment,0% Never,100% Always,images\ NASALTIP_CFD_AF_231_357_N.png,0,0,0,0,5,72,547,61,,,,,,,,,,,,2023-04-07_19h48.09.913,FaceAttractiveness,2022.2.5,144.0036173447666,
treatment,0% Never,100% Always,images\FOREHEAD_CFD_AM_233_236_N.png,0,0,0,0,5,73,548,7,,,,,,,,,,,,2023-04-07_19h48.09.913,FaceAttractiveness,2022.2.5,144.0036173447666,
treatment,0% Never,100% Always,images\FOREHEAD_006_M_F_N_A.png,0,0,0,0,5,74,549,0,,,,,,,,,,,,2023-04-07_19h48.09.913,FaceAttractiveness,2022.2.5,144.0036173447666,
treatment,0% Never,100% Always,"images\ NASALTIP_136_M_M_N_A.png
",0,0,0,0,5,75,550,60,,,,,,,,,,,,2023-04-07_19h48.09.913,FaceAttractiveness,2022.2.5,144.0036173447666,
treatment,0% Never,100% Always,images\FOREHEAD_CFD_WF_002_004_N.png,0,0,0,0,5,76,551,15,,,,,,,,,,,,2023-04-07_19h48.09.913,FaceAttractiveness,2022.2.5,144.0036173447666,
treatment,0% Never,100% Always,images\ RCHEEK_006_M_F_N_A.png,0,0,0,0,5,77,552,76,,,,,,,,,,,,2023-04-07_19h48.09.913,FaceAttractiveness,2022.2.5,144.0036173447666,
treatment,0% Never,100% Always,images\ RCHEEK_087_M_M_N_A.png,0,0,0,0,5,78,553,78,,,,,,,,,,,,2023-04-07_19h48.09.913,FaceAttractiveness,2022.2.5,144.0036173447666,
treatment,0% Never,100% Always,images\ LCHEEK_CFD_AF_237_223_N.png,0,0,0,0,5,79,554,24,,,,,,,,,,,,2023-04-07_19h48.09.913,FaceAttractiveness,2022.2.5,144.0036173447666,
treatment,0% Never,100% Always,"images\ LIP_CFD_BM_234_172_N.png
",0,0,0,0,5,80,555,49,,,,,,,,,,,,2023-04-07_19h48.09.913,FaceAttractiveness,2022.2.5,144.0036173447666,
treatment,0% Never,100% Always,images\ RCHEEK_CFD_AF_245_143_N.png,0,0,0,0,5,81,556,82,,,,,,,,,,,,2023-04-07_19h48.09.913,FaceAttractiveness,2022.2.5,144.0036173447666,
treatment,0% Never,100% Always,images\FOREHEAD_CFD_AF_237_223_N.png,0,0,0,0,5,82,557,5,,,,,,,,,,,,2023-04-07_19h48.09.913,FaceAttractiveness,2022.2.5,144.0036173447666,
treatment,0% Never,100% Always,images\ NASALTIP_CFD_LM_201_057_N.png,0,0,0,0,5,83,558,70,,,,,,,,,,,,2023-04-07_19h48.09.913,FaceAttractiveness,2022.2.5,144.0036173447666,
treatment,0% Never,100% Always,images\ LCHEEK_CFD_LM_203_026_N.png,0,0,0,0,5,84,559,33,,,,,,,,,,,,2023-04-07_19h48.09.913,FaceAttractiveness,2022.2.5,144.0036173447666,
treatment,0% Never,100% Always,"images\ NASALTIP_CFD_AM_233_236_N.png
",0,0,0,0,5,85,560,64,,,,,,,,,,,,2023-04-07_19h48.09.913,FaceAttractiveness,2022.2.5,144.0036173447666,
treatment,0% Never,100% Always,images\ LIP_CFD_WM_212_097_N.png,0,0,0,0,5,86,561,56,,,,,,,,,,,,2023-04-07_19h48.09.913,FaceAttractiveness,2022.2.5,144.0036173447666,
treatment,0% Never,100% Always,images\ RCHEEK_CFD_AF_237_223_N.png,0,0,0,0,5,87,562,81,,,,,,,,,,,,2023-04-07_19h48.09.913,FaceAttractiveness,2022.2.5,144.0036173447666,
treatment,0% Never,100% Always,images\ LIP_CFD_LF_224_176_N.png,0,0,0,0,5,88,563,50,,,,,,,,,,,,2023-04-07_19h48.09.913,FaceAttractiveness,2022.2.5,144.0036173447666,
treatment,0% Never,100% Always,"images\ RCHEEK_CFD_WF_002_004_N.png
",0,0,0,0,5,89,564,91,,,,,,,,,,,,2023-04-07_19h48.09.913,FaceAttractiveness,2022.2.5,144.0036173447666,
treatment,0% Never,100% Always,images\ NASALTIP_CFD_WF_250_167_N.png,0,0,0,0,5,90,565,74,,,,,,,,,,,,2023-04-07_19h48.09.913,FaceAttractiveness,2022.2.5,144.0036173447666,
treatment,0% Never,100% Always,images\ LIP_CFD_BF_214_308_N.png,0,0,0,0,5,91,566,46,,,,,,,,,,,,2023-04-07_19h48.09.913,FaceAttractiveness,2022.2.5,144.0036173447666,
treatment,0% Never,100% Always,images\FOREHEAD_CFD_AF_245_143_N.png,0,0,0,0,5,92,567,6,,,,,,,,,,,,2023-04-07_19h48.09.913,FaceAttractiveness,2022.2.5,144.0036173447666,
treatment,0% Never,100% Always,images\FOREHEAD_CFD_WF_250_167_N.png,0,0,0,0,5,93,568,17,,,,,,,,,,,,2023-04-07_19h48.09.913,FaceAttractiveness,2022.2.5,144.0036173447666,
treatment,0% Never,100% Always,images\ NASALTIP_035_M_F_N_A.png,0,0,0,0,5,94,569,58,,,,,,,,,,,,2023-04-07_19h48.09.913,FaceAttractiveness,2022.2.5,144.0036173447666,
treatment,0% Never,100% Always,images\ LCHEEK_CFD_WF_200_099_N.png,0,0,0,0,6,0,570,35,,,,,,,,,,,,2023-04-07_19h48.09.913,FaceAttractiveness,2022.2.5,144.0036173447666,
treatment,0% Never,100% Always,images\FOREHEAD_CFD_WF_200_099_N.png,0,0,0,0,6,1,571,16,,,,,,,,,,,,2023-04-07_19h48.09.913,FaceAttractiveness,2022.2.5,144.0036173447666,
treatment,0% Never,100% Always,images\ LCHEEK_035_M_F_N_A.png,0,0,0,0,6,2,572,20,,,,,,,,,,,,2023-04-07_19h48.09.913,FaceAttractiveness,2022.2.5,144.0036173447666,
treatment,0% Never,100% Always,"images\ LCHEEK_CFD_WF_002_004_N.png
",0,0,0,0,6,3,573,34,,,,,,,,,,,,2023-04-07_19h48.09.913,FaceAttractiveness,2022.2.5,144.0036173447666,
treatment,0% Never,100% Always,images\ NASALTIP_CFD_WF_250_167_N.png,0,0,0,0,6,4,574,74,,,,,,,,,,,,2023-04-07_19h48.09.913,FaceAttractiveness,2022.2.5,144.0036173447666,
treatment,0% Never,100% Always,images\FOREHEAD_CFD_WM_212_097_N.png,0,0,0,0,6,5,575,18,,,,,,,,,,,,2023-04-07_19h48.09.913,FaceAttractiveness,2022.2.5,144.0036173447666,
treatment,0% Never,100% Always,images\FOREHEAD_136_M_M_N_A.png,0,0,0,0,6,6,576,3,,,,,,,,,,,,2023-04-07_19h48.09.913,FaceAttractiveness,2022.2.5,144.0036173447666,
treatment,0% Never,100% Always,images\ NASALTIP_CFD_LM_203_026_N.png,0,0,0,0,6,7,577,71,,,,,,,,,,,,2023-04-07_19h48.09.913,FaceAttractiveness,2022.2.5,144.0036173447666,
treatment,0% Never,100% Always,images\ RCHEEK_CFD_BM_213_134_N.png,0,0,0,0,6,8,578,86,,,,,,,,,,,,2023-04-07_19h48.09.913,FaceAttractiveness,2022.2.5,144.0036173447666,
treatment,0% Never,100% Always,images\ LCHEEK_CFD_LM_203_026_N.png,0,0,0,0,6,9,579,33,,,,,,,,,,,,2023-04-07_19h48.09.913,FaceAttractiveness,2022.2.5,144.0036173447666,
treatment,0% Never,100% Always,images\ NASALTIP_006_M_F_N_A.png,0,0,0,0,6,10,580,57,,,,,,,,,,,,2023-04-07_19h48.09.913,FaceAttractiveness,2022.2.5,144.0036173447666,
treatment,0% Never,100% Always,"images\ LIP_CFD_BM_234_172_N.png
",0,0,0,0,6,11,581,49,,,,,,,,,,,,2023-04-07_19h48.09.913,FaceAttractiveness,2022.2.5,144.0036173447666,
treatment,0% Never,100% Always,images\ RCHEEK_CFD_LM_201_057_N.png,0,0,0,0,6,12,582,89,,,,,,,,,,,,2023-04-07_19h48.09.913,FaceAttractiveness,2022.2.5,144.0036173447666,
treatment,0% Never,100% Always,images\ NASALTIP_CFD_AF_245_143_N.png,0,0,0,0,6,13,583,63,,,,,,,,,,,,2023-04-07_19h48.09.913,FaceAttractiveness,2022.2.5,144.0036173447666,
treatment,0% Never,100% Always,images\ LCHEEK_CFD_AF_237_223_N.png,0,0,0,0,6,14,584,24,,,,,,,,,,,,2023-04-07_19h48.09.913,FaceAttractiveness,2022.2.5,144.0036173447666,
treatment,0% Never,100% Always,images\ NASALTIP_CFD_LM_201_057_N.png,0,0,0,0,6,15,585,70,,,,,,,,,,,,2023-04-07_19h48.09.913,FaceAttractiveness,2022.2.5,144.0036173447666,
treatment,0% Never,100% Always,images\ LCHEEK_CFD_WF_250_167_N.png,0,0,0,0,6,16,586,36,,,,,,,,,,,,2023-04-07_19h48.09.913,FaceAttractiveness,2022.2.5,144.0036173447666,
treatment,0% Never,100% Always,images\ RCHEEK_CFD_WF_250_167_N.png,0,0,0,0,6,17,587,93,,,,,,,,,,,,2023-04-07_19h48.09.913,FaceAttractiveness,2022.2.5,144.0036173447666,
treatment,0% Never,100% Always,images\ RCHEEK_CFD_AF_231_357_N.png,0,0,0,0,6,18,588,80,,,,,,,,,,,,2023-04-07_19h48.09.913,FaceAttractiveness,2022.2.5,144.0036173447666,
treatment,0% Never,100% Always,images\ NASALTIP_CFD_WM_212_097_N.png,0,0,0,0,6,19,589,75,,,,,,,,,,,,2023-04-07_19h48.09.913,FaceAttractiveness,2022.2.5,144.0036173447666,
treatment,0% Never,100% Always,"images\ LCHEEK_136_M_M_N_A.png
",0,0,0,0,6,20,590,22,,,,,,,,,,,,2023-04-07_19h48.09.913,FaceAttractiveness,2022.2.5,144.0036173447666,
treatment,0% Never,100% Always,images\FOREHEAD_087_M_M_N_A.png,0,0,0,0,6,21,591,2,,,,,,,,,,,,2023-04-07_19h48.09.913,FaceAttractiveness,2022.2.5,144.0036173447666,
