Task,LeftLabel,RightLabel,faceImages,RatingBlockOrder.thisRepN,RatingBlockOrder.thisTrialN,RatingBlockOrder.thisN,RatingBlockOrder.thisIndex,originalFaceTrials.thisRepN,originalFaceTrials.thisTrialN,originalFaceTrials.thisN,originalFaceTrials.thisIndex,face_image_q.started,text_2.started,text_3.started,mouse_7.started,image_3.started,slider.started,slider_2.started,text_2.stopped,text_3.stopped,mouse_7.stopped,image_3.stopped,slider.response,slider.rt,slider_2.response,slider_2.rt,mouse_7.x,mouse_7.y,mouse_7.leftButton,mouse_7.midButton,mouse_7.rightButton,mouse_7.time,EndText.started,Name,Gender,Age,Ethnicity,date,expName,psychopyVersion,frameRate,
treatment,0% Never,100% Always,images\FOREHEAD_CFD_AM_233_236_N.png,0,0,0,0,0,0,0,7,,,,,,,,,,,,,,,,,,,,,,,,,,,2023-04-07_19h36.32.320,FaceAttractiveness,2022.2.5,139.68450855709384,
treatment,0% Never,100% Always,images\ RCHEEK_CFD_LM_203_026_N.png,0,0,0,0,0,1,1,90,,,,,,,,,,,,,,,,,,,,,,,,,,,2023-04-07_19h36.32.320,FaceAttractiveness,2022.2.5,139.68450855709384,
treatment,0% Never,100% Always,images\ NASALTIP_CFD_BF_214_308_N.png,0,0,0,0,0,2,2,65,,,,,,,,,,,,,,,,,,,,,,,,,,,2023-04-07_19h36.32.320,FaceAttractiveness,2022.2.5,139.68450855709384,
treatment,0% Never,100% Always,images\ NASALTIP_087_M_M_N_A.png,0,0,0,0,0,3,3,59,,,,,,,,,,,,,,,,,,,,,,,,,,,2023-04-07_19h36.32.320,FaceAttractiveness,2022.2.5,139.68450855709384,
treatment,0% Never,100% Always,images\ LIP_CFD_AF_245_143_N.png,0,0,0,0,0,4,4,44,,,,,,,,,,,,,,,,,,,,,,,,,,,2023-04-07_19h36.32.320,FaceAttractiveness,2022.2.5,139.68450855709384,
treatment,0% Never,100% Always,images\ LIP_CFD_AF_237_223_N.png,0,0,0,0,0,5,5,43,,,,,,,,,,,,,,,,,,,,,,,,,,,2023-04-07_19h36.32.320,FaceAttractiveness,2022.2.5,139.68450855709384,
treatment,0% Never,100% Always,"images\ LCHEEK_136_M_M_N_A.png
",0,0,0,0,0,6,6,22,,,,,,,,,,,,,,,,,,,,,,,,,,,2023-04-07_19h36.32.320,FaceAttractiveness,2022.2.5,139.68450855709384,
treatment,0% Never,100% Always,images\ LCHEEK_CFD_WM_212_097_N.png,0,0,0,0,0,7,7,37,,,,,,,,,,,,,,,,,,,,,,,,,,,2023-04-07_19h36.32.320,FaceAttractiveness,2022.2.5,139.68450855709384,
treatment,0% Never,100% Always,images\ RCHEEK_035_M_F_N_A.png,0,0,0,0,0,8,8,77,,,,,,,,,,,,,,,,,,,,,,,,,,,2023-04-07_19h36.32.320,FaceAttractiveness,2022.2.5,139.68450855709384,
treatment,0% Never,100% Always,images\FOREHEAD_CFD_LM_201_057_N.png,0,0,0,0,0,9,9,13,,,,,,,,,,,,,,,,,,,,,,,,,,,2023-04-07_19h36.32.320,FaceAttractiveness,2022.2.5,139.68450855709384,
treatment,0% Never,100% Always,images\FOREHEAD_006_M_F_N_A.png,0,0,0,0,0,10,10,0,,,,,,,,,,,,,,,,,,,,,,,,,,,2023-04-07_19h36.32.320,FaceAttractiveness,2022.2.5,139.68450855709384,
treatment,0% Never,100% Always,images\ LIP_CFD_WF_250_167_N.png,0,0,0,0,0,11,11,55,,,,,,,,,,,,,,,,,,,,,,,,,,,2023-04-07_19h36.32.320,FaceAttractiveness,2022.2.5,139.68450855709384,
treatment,0% Never,100% Always,images\FOREHEAD_035_M_F_N_A.png,0,0,0,0,0,12,12,1,,,,,,,,,,,,,,,,,,,,,,,,,,,2023-04-07_19h36.32.320,FaceAttractiveness,2022.2.5,139.68450855709384,
treatment,0% Never,100% Always,"images\ LCHEEK_CFD_WF_002_004_N.png
",0,0,0,0,0,13,13,34,,,,,,,,,,,,,,,,,,,,,,,,,,,2023-04-07_19h36.32.320,FaceAttractiveness,2022.2.5,139.68450855709384,
treatment,0% Never,100% Always,images\ RCHEEK_CFD_AF_245_143_N.png,0,0,0,0,0,14,14,82,,,,,,,,,,,,,,,,,,,,,,,,,,,2023-04-07_19h36.32.320,FaceAttractiveness,2022.2.5,139.68450855709384,
treatment,0% Never,100% Always,images\ NASALTIP_035_M_F_N_A.png,0,0,0,0,0,15,15,58,,,,,,,,,,,,,,,,,,,,,,,,,,,2023-04-07_19h36.32.320,FaceAttractiveness,2022.2.5,139.68450855709384,
treatment,0% Never,100% Always,"images\ NASALTIP_CFD_AM_233_236_N.png
",0,0,0,0,0,16,16,64,,,,,,,,,,,,,,,,,,,,,,,,,,,2023-04-07_19h36.32.320,FaceAttractiveness,2022.2.5,139.68450855709384,
treatment,0% Never,100% Always,images\ LCHEEK_CFD_AF_231_357_N.png,0,0,0,0,0,17,17,23,,,,,,,,,,,,,,,,,,,,,,,,,,,2023-04-07_19h36.32.320,FaceAttractiveness,2022.2.5,139.68450855709384,
treatment,0% Never,100% Always,images\ NASALTIP_CFD_LM_201_057_N.png,0,0,0,0,0,18,18,70,,,,,,,,,,,,,,,,,,,,,,,,,,,2023-04-07_19h36.32.320,FaceAttractiveness,2022.2.5,139.68450855709384,
treatment,0% Never,100% Always,images\ LIP_CFD_LM_203_026_N.png,0,0,0,0,0,19,19,52,,,,,,,,,,,,,,,,,,,,,,,,,,,2023-04-07_19h36.32.320,FaceAttractiveness,2022.2.5,139.68450855709384,
treatment,0% Never,100% Always,"images\ LIP_CFD_AM_233_236_N.png
",0,0,0,0,0,20,20,45,,,,,,,,,,,,,,,,,,,,,,,,,,,2023-04-07_19h36.32.320,FaceAttractiveness,2022.2.5,139.68450855709384,
treatment,0% Never,100% Always,images\ RCHEEK_006_M_F_N_A.png,0,0,0,0,0,21,21,76,,,,,,,,,,,,,,,,,,,,,,,,,,,2023-04-07_19h36.32.320,FaceAttractiveness,2022.2.5,139.68450855709384,
treatment,0% Never,100% Always,images\FOREHEAD_CFD_AF_231_357_N.png,0,0,0,0,0,22,22,4,,,,,,,,,,,,,,,,,,,,,,,,,,,2023-04-07_19h36.32.320,FaceAttractiveness,2022.2.5,139.68450855709384,
treatment,0% Never,100% Always,images\ RCHEEK_CFD_BM_213_134_N.png,0,0,0,0,0,23,23,86,,,,,,,,,,,,,,,,,,,,,,,,,,,2023-04-07_19h36.32.320,FaceAttractiveness,2022.2.5,139.68450855709384,
treatment,0% Never,100% Always,images\FOREHEAD_136_M_M_N_A.png,0,0,0,0,0,24,24,3,,,,,,,,,,,,,,,,,,,,,,,,,,,2023-04-07_19h36.32.320,FaceAttractiveness,2022.2.5,139.68450855709384,
treatment,0% Never,100% Always,images\ RCHEEK_CFD_WM_212_097_N.png,0,0,0,0,0,25,25,94,,,,,,,,,,,,,,,,,,,,,,,,,,,2023-04-07_19h36.32.320,FaceAttractiveness,2022.2.5,139.68450855709384,
treatment,0% Never,100% Always,images\ NASALTIP_CFD_AF_237_223_N.png,0,0,0,0,0,26,26,62,,,,,,,,,,,,,,,,,,,,,,,,,,,2023-04-07_19h36.32.320,FaceAttractiveness,2022.2.5,139.68450855709384,
treatment,0% Never,100% Always,images\ LCHEEK_CFD_BF_214_308_N.png,0,0,0,0,0,27,27,27,,,,,,,,,,,,,,,,,,,,,,,,,,,2023-04-07_19h36.32.320,FaceAttractiveness,2022.2.5,139.68450855709384,
treatment,0% Never,100% Always,"images\ RCHEEK_CFD_BM_234_172_N.png
",0,0,0,0,0,28,28,87,,,,,,,,,,,,,,,,,,,,,,,,,,,2023-04-07_19h36.32.320,FaceAttractiveness,2022.2.5,139.68450855709384,
treatment,0% Never,100% Always,"images\ RCHEEK_136_M_M_N_A.png
",0,0,0,0,0,29,29,79,,,,,,,,,,,,,,,,,,,,,,,,,,,2023-04-07_19h36.32.320,FaceAttractiveness,2022.2.5,139.68450855709384,
treatment,0% Never,100% Always,images\FOREHEAD_CFD_BF_224_002_N.png,0,0,0,0,0,30,30,9,,,,,,,,,,,,,,,,,,,,,,,,,,,2023-04-07_19h36.32.320,FaceAttractiveness,2022.2.5,139.68450855709384,
treatment,0% Never,100% Always,images\FOREHEAD_CFD_WF_250_167_N.png,0,0,0,0,0,31,31,17,,,,,,,,,,,,,,,,,,,,,,,,,,,2023-04-07_19h36.32.320,FaceAttractiveness,2022.2.5,139.68450855709384,
treatment,0% Never,100% Always,images\ NASALTIP_CFD_AF_231_357_N.png,0,0,0,0,0,32,32,61,,,,,,,,,,,,,,,,,,,,,,,,,,,2023-04-07_19h36.32.320,FaceAttractiveness,2022.2.5,139.68450855709384,
treatment,0% Never,100% Always,images\ LCHEEK_CFD_AF_237_223_N.png,0,0,0,0,0,33,33,24,,,,,,,,,,,,,,,,,,,,,,,,,,,2023-04-07_19h36.32.320,FaceAttractiveness,2022.2.5,139.68450855709384,
treatment,0% Never,100% Always,images\FOREHEAD_CFD_AF_237_223_N.png,0,0,0,0,0,34,34,5,,,,,,,,,,,,,,,,,,,,,,,,,,,2023-04-07_19h36.32.320,FaceAttractiveness,2022.2.5,139.68450855709384,
treatment,0% Never,100% Always,"images\ LIP_136_M_M_N_A.png
",0,0,0,0,0,35,35,41,,,,,,,,,,,,,,,,,,,,,,,,,,,2023-04-07_19h36.32.320,FaceAttractiveness,2022.2.5,139.68450855709384,
treatment,0% Never,100% Always,images\ LIP_035_M_F_N_A.png,0,0,0,0,0,36,36,39,,,,,,,,,,,,,,,,,,,,,,,,,,,2023-04-07_19h36.32.320,FaceAttractiveness,2022.2.5,139.68450855709384,
treatment,0% Never,100% Always,images\ LIP_087_M_M_N_A.png,0,0,0,0,0,37,37,40,,,,,,,,,,,,,,,,,,,,,,,,,,,2023-04-07_19h36.32.320,FaceAttractiveness,2022.2.5,139.68450855709384,
treatment,0% Never,100% Always,images\ RCHEEK_CFD_BF_214_308_N.png,0,0,0,0,0,38,38,84,,,,,,,,,,,,,,,,,,,,,,,,,,,2023-04-07_19h36.32.320,FaceAttractiveness,2022.2.5,139.68450855709384,
treatment,0% Never,100% Always,images\ RCHEEK_CFD_WF_250_167_N.png,0,0,0,0,0,39,39,93,,,,,,,,,,,,,,,,,,,,,,,,,,,2023-04-07_19h36.32.320,FaceAttractiveness,2022.2.5,139.68450855709384,
treatment,0% Never,100% Always,images\ NASALTIP_CFD_LM_203_026_N.png,0,0,0,0,0,40,40,71,,,,,,,,,,,,,,,,,,,,,,,,,,,2023-04-07_19h36.32.320,FaceAttractiveness,2022.2.5,139.68450855709384,
treatment,0% Never,100% Always,images\ NASALTIP_CFD_BF_224_002_N.png,0,0,0,0,0,41,41,66,,,,,,,,,,,,,,,,,,,,,,,,,,,2023-04-07_19h36.32.320,FaceAttractiveness,2022.2.5,139.68450855709384,
treatment,0% Never,100% Always,images\FOREHEAD_CFD_BM_213_134_N.png,0,0,0,0,0,42,42,10,,,,,,,,,,,,,,,,,,,,,,,,,,,2023-04-07_19h36.32.320,FaceAttractiveness,2022.2.5,139.68450855709384,
treatment,0% Never,100% Always,images\ LCHEEK_006_M_F_N_A.png,0,0,0,0,0,43,43,19,,,,,,,,,,,,,,,,,,,,,,,,,,,2023-04-07_19h36.32.320,FaceAttractiveness,2022.2.5,139.68450855709384,
treatment,0% Never,100% Always,images\ RCHEEK_CFD_LF_224_176_N.png,0,0,0,0,0,44,44,88,,,,,,,,,,,,,,,,,,,,,,,,,,,2023-04-07_19h36.32.320,FaceAttractiveness,2022.2.5,139.68450855709384,
treatment,0% Never,100% Always,images\FOREHEAD_CFD_WM_212_097_N.png,0,0,0,0,0,45,45,18,,,,,,,,,,,,,,,,,,,,,,,,,,,2023-04-07_19h36.32.320,FaceAttractiveness,2022.2.5,139.68450855709384,
treatment,0% Never,100% Always,images\ LIP_CFD_BF_224_002_N.png,0,0,0,0,0,46,46,47,,,,,,,,,,,,,,,,,,,,,,,,,,,2023-04-07_19h36.32.320,FaceAttractiveness,2022.2.5,139.68450855709384,
treatment,0% Never,100% Always,images\ NASALTIP_CFD_WM_212_097_N.png,0,0,0,0,0,47,47,75,,,,,,,,,,,,,,,,,,,,,,,,,,,2023-04-07_19h36.32.320,FaceAttractiveness,2022.2.5,139.68450855709384,
treatment,0% Never,100% Always,images\ LCHEEK_CFD_BM_213_134_N.png,0,0,0,0,0,48,48,29,,,,,,,,,,,,,,,,,,,,,,,,,,,2023-04-07_19h36.32.320,FaceAttractiveness,2022.2.5,139.68450855709384,
treatment,0% Never,100% Always,images\ LCHEEK_CFD_WF_200_099_N.png,0,0,0,0,0,49,49,35,,,,,,,,,,,,,,,,,,,,,,,,,,,2023-04-07_19h36.32.320,FaceAttractiveness,2022.2.5,139.68450855709384,
treatment,0% Never,100% Always,images\ NASALTIP_CFD_AF_245_143_N.png,0,0,0,0,0,50,50,63,,,,,,,,,,,,,,,,,,,,,,,,,,,2023-04-07_19h36.32.320,FaceAttractiveness,2022.2.5,139.68450855709384,
treatment,0% Never,100% Always,images\ LCHEEK_087_M_M_N_A.png,0,0,0,0,0,51,51,21,,,,,,,,,,,,,,,,,,,,,,,,,,,2023-04-07_19h36.32.320,FaceAttractiveness,2022.2.5,139.68450855709384,
treatment,0% Never,100% Always,images\ NASALTIP_CFD_WF_200_099_N.png,0,0,0,0,0,52,52,73,,,,,,,,,,,,,,,,,,,,,,,,,,,2023-04-07_19h36.32.320,FaceAttractiveness,2022.2.5,139.68450855709384,
treatment,0% Never,100% Always,"images\ NASALTIP_CFD_WF_002_004_N.png
",0,0,0,0,0,53,53,72,,,,,,,,,,,,,,,,,,,,,,,,,,,2023-04-07_19h36.32.320,FaceAttractiveness,2022.2.5,139.68450855709384,
treatment,0% Never,100% Always,"images\ NASALTIP_CFD_BM_234_172_N.png
",0,0,0,0,0,54,54,68,,,,,,,,,,,,,,,,,,,,,,,,,,,2023-04-07_19h36.32.320,FaceAttractiveness,2022.2.5,139.68450855709384,
treatment,0% Never,100% Always,images\ LIP_CFD_BF_214_308_N.png,0,0,0,0,0,55,55,46,,,,,,,,,,,,,,,,,,,,,,,,,,,2023-04-07_19h36.32.320,FaceAttractiveness,2022.2.5,139.68450855709384,
treatment,0% Never,100% Always,images\FOREHEAD_CFD_BF_214_308_N.png,0,0,0,0,0,56,56,8,,,,,,,,,,,,,,,,,,,,,,,,,,,2023-04-07_19h36.32.320,FaceAttractiveness,2022.2.5,139.68450855709384,
treatment,0% Never,100% Always,images\ NASALTIP_CFD_BM_213_134_N.png,0,0,0,0,0,57,57,67,,,,,,,,,,,,,,,,,,,,,,,,,,,2023-04-07_19h36.32.320,FaceAttractiveness,2022.2.5,139.68450855709384,
treatment,0% Never,100% Always,images\FOREHEAD_CFD_LF_224_176_N.png,0,0,0,0,0,58,58,12,,,,,,,,,,,,,,,,,,,,,,,,,,,2023-04-07_19h36.32.320,FaceAttractiveness,2022.2.5,139.68450855709384,
treatment,0% Never,100% Always,"images\ LCHEEK_CFD_BM_234_172_N.png
",0,0,0,0,0,59,59,30,,,,,,,,,,,,,,,,,,,,,,,,,,,2023-04-07_19h36.32.320,FaceAttractiveness,2022.2.5,139.68450855709384,
treatment,0% Never,100% Always,images\ NASALTIP_CFD_WF_250_167_N.png,0,0,0,0,0,60,60,74,,,,,,,,,,,,,,,,,,,,,,,,,,,2023-04-07_19h36.32.320,FaceAttractiveness,2022.2.5,139.68450855709384,
treatment,0% Never,100% Always,images\ RCHEEK_CFD_AF_231_357_N.png,0,0,0,0,0,61,61,80,,,,,,,,,,,,,,,,,,,,,,,,,,,2023-04-07_19h36.32.320,FaceAttractiveness,2022.2.5,139.68450855709384,
treatment,0% Never,100% Always,images\ LIP_006_M_F_N_A.png,0,0,0,0,0,62,62,38,,,,,,,,,,,,,,,,,,,,,,,,,,,2023-04-07_19h36.32.320,FaceAttractiveness,2022.2.5,139.68450855709384,
treatment,0% Never,100% Always,images\ NASALTIP_CFD_LF_224_176_N.png,0,0,0,0,0,63,63,69,,,,,,,,,,,,,,,,,,,,,,,,,,,2023-04-07_19h36.32.320,FaceAttractiveness,2022.2.5,139.68450855709384,
treatment,0% Never,100% Always,images\ LCHEEK_035_M_F_N_A.png,0,0,0,0,0,64,64,20,,,,,,,,,,,,,,,,,,,,,,,,,,,2023-04-07_19h36.32.320,FaceAttractiveness,2022.2.5,139.68450855709384,
treatment,0% Never,100% Always,images\ LIP_CFD_LF_224_176_N.png,0,0,0,0,0,65,65,50,,,,,,,,,,,,,,,,,,,,,,,,,,,2023-04-07_19h36.32.320,FaceAttractiveness,2022.2.5,139.68450855709384,
treatment,0% Never,100% Always,images\ LCHEEK_CFD_LM_201_057_N.png,0,0,0,0,0,66,66,32,,,,,,,,,,,,,,,,,,,,,,,,,,,2023-04-07_19h36.32.320,FaceAttractiveness,2022.2.5,139.68450855709384,
treatment,0% Never,100% Always,images\FOREHEAD_CFD_BM_234_172_N.png,0,0,0,0,0,67,67,11,,,,,,,,,,,,,,,,,,,,,,,,,,,2023-04-07_19h36.32.320,FaceAttractiveness,2022.2.5,139.68450855709384,
treatment,0% Never,100% Always,images\ LIP_CFD_BM_213_134_N.png,0,0,0,0,0,68,68,48,,,,,,,,,,,,,,,,,,,,,,,,,,,2023-04-07_19h36.32.320,FaceAttractiveness,2022.2.5,139.68450855709384,
treatment,0% Never,100% Always,"images\ LIP_CFD_BM_234_172_N.png
",0,0,0,0,0,69,69,49,,,,,,,,,,,,,,,,,,,,,,,,,,,2023-04-07_19h36.32.320,FaceAttractiveness,2022.2.5,139.68450855709384,
treatment,0% Never,100% Always,images\ LIP_CFD_AF_231_357_N.png,0,0,0,0,0,70,70,42,,,,,,,,,,,,,,,,,,,,,,,,,,,2023-04-07_19h36.32.320,FaceAttractiveness,2022.2.5,139.68450855709384,
treatment,0% Never,100% Always,"images\ RCHEEK_CFD_AM_233_236_N.png
",0,0,0,0,0,71,71,83,,,,,,,,,,,,,,,,,,,,,,,,,,,2023-04-07_19h36.32.320,FaceAttractiveness,2022.2.5,139.68450855709384,
treatment,0% Never,100% Always,"images\ LIP_CFD_WF_002_004_N.png
",0,0,0,0,0,72,72,53,,,,,,,,,,,,,,,,,,,,,,,,,,,2023-04-07_19h36.32.320,FaceAttractiveness,2022.2.5,139.68450855709384,
treatment,0% Never,100% Always,images\ LCHEEK_CFD_LM_203_026_N.png,0,0,0,0,0,73,73,33,,,,,,,,,,,,,,,,,,,,,,,,,,,2023-04-07_19h36.32.320,FaceAttractiveness,2022.2.5,139.68450855709384,
treatment,0% Never,100% Always,images\ LIP_CFD_WM_212_097_N.png,0,0,0,0,0,74,74,56,,,,,,,,,,,,,,,,,,,,,,,,,,,2023-04-07_19h36.32.320,FaceAttractiveness,2022.2.5,139.68450855709384,
treatment,0% Never,100% Always,images\ RCHEEK_CFD_WF_200_099_N.png,0,0,0,0,0,75,75,92,,,,,,,,,,,,,,,,,,,,,,,,,,,2023-04-07_19h36.32.320,FaceAttractiveness,2022.2.5,139.68450855709384,
treatment,0% Never,100% Always,images\ LCHEEK_CFD_AF_245_143_N.png,0,0,0,0,0,76,76,25,,,,,,,,,,,,,,,,,,,,,,,,,,,2023-04-07_19h36.32.320,FaceAttractiveness,2022.2.5,139.68450855709384,
treatment,0% Never,100% Always,images\ RCHEEK_CFD_LM_201_057_N.png,0,0,0,0,0,77,77,89,,,,,,,,,,,,,,,,,,,,,,,,,,,2023-04-07_19h36.32.320,FaceAttractiveness,2022.2.5,139.68450855709384,
treatment,0% Never,100% Always,images\ LIP_CFD_LM_201_057_N.png,0,0,0,0,0,78,78,51,,,,,,,,,,,,,,,,,,,,,,,,,,,2023-04-07_19h36.32.320,FaceAttractiveness,2022.2.5,139.68450855709384,
treatment,0% Never,100% Always,images\FOREHEAD_CFD_WF_200_099_N.png,0,0,0,0,0,79,79,16,,,,,,,,,,,,,,,,,,,,,,,,,,,2023-04-07_19h36.32.320,FaceAttractiveness,2022.2.5,139.68450855709384,
treatment,0% Never,100% Always,images\ NASALTIP_006_M_F_N_A.png,0,0,0,0,0,80,80,57,,,,,,,,,,,,,,,,,,,,,,,,,,,2023-04-07_19h36.32.320,FaceAttractiveness,2022.2.5,139.68450855709384,
treatment,0% Never,100% Always,images\FOREHEAD_CFD_AF_245_143_N.png,0,0,0,0,0,81,81,6,,,,,,,,,,,,,,,,,,,,,,,,,,,2023-04-07_19h36.32.320,FaceAttractiveness,2022.2.5,139.68450855709384,
treatment,0% Never,100% Always,"images\ NASALTIP_136_M_M_N_A.png
",0,0,0,0,0,82,82,60,,,,,,,,,,,,,,,,,,,,,,,,,,,2023-04-07_19h36.32.320,FaceAttractiveness,2022.2.5,139.68450855709384,
treatment,0% Never,100% Always,images\ LCHEEK_CFD_BF_224_002_N.png,0,0,0,0,0,83,83,28,,,,,,,,,,,,,,,,,,,,,,,,,,,2023-04-07_19h36.32.320,FaceAttractiveness,2022.2.5,139.68450855709384,
treatment,0% Never,100% Always,"images\ RCHEEK_CFD_WF_002_004_N.png
",0,0,0,0,0,84,84,91,,,,,,,,,,,,,,,,,,,,,,,,,,,2023-04-07_19h36.32.320,FaceAttractiveness,2022.2.5,139.68450855709384,
treatment,0% Never,100% Always,images\FOREHEAD_CFD_WF_002_004_N.png,0,0,0,0,0,85,85,15,,,,,,,,,,,,,,,,,,,,,,,,,,,2023-04-07_19h36.32.320,FaceAttractiveness,2022.2.5,139.68450855709384,
treatment,0% Never,100% Always,images\ RCHEEK_087_M_M_N_A.png,0,0,0,0,0,86,86,78,,,,,,,,,,,,,,,,,,,,,,,,,,,2023-04-07_19h36.32.320,FaceAttractiveness,2022.2.5,139.68450855709384,
treatment,0% Never,100% Always,images\ LIP_CFD_WF_200_099_N.png,0,0,0,0,0,87,87,54,,,,,,,,,,,,,,,,,,,,,,,,,,,2023-04-07_19h36.32.320,FaceAttractiveness,2022.2.5,139.68450855709384,
treatment,0% Never,100% Always,images\ RCHEEK_CFD_AF_237_223_N.png,0,0,0,0,0,88,88,81,,,,,,,,,,,,,,,,,,,,,,,,,,,2023-04-07_19h36.32.320,FaceAttractiveness,2022.2.5,139.68450855709384,
treatment,0% Never,100% Always,"images\ LCHEEK_CFD_AM_233_236_N.png
",0,0,0,0,0,89,89,26,,,,,,,,,,,,,,,,,,,,,,,,,,,2023-04-07_19h36.32.320,FaceAttractiveness,2022.2.5,139.68450855709384,
treatment,0% Never,100% Always,images\FOREHEAD_087_M_M_N_A.png,0,0,0,0,0,90,90,2,,,,,,,,,,,,,,,,,,,,,,,,,,,2023-04-07_19h36.32.320,FaceAttractiveness,2022.2.5,139.68450855709384,
treatment,0% Never,100% Always,images\ LCHEEK_CFD_WF_250_167_N.png,0,0,0,0,0,91,91,36,,,,,,,,,,,,,,,,,,,,,,,,,,,2023-04-07_19h36.32.320,FaceAttractiveness,2022.2.5,139.68450855709384,
treatment,0% Never,100% Always,images\ RCHEEK_CFD_BF_224_002_N.png,0,0,0,0,0,92,92,85,,,,,,,,,,,,,,,,,,,,,,,,,,,2023-04-07_19h36.32.320,FaceAttractiveness,2022.2.5,139.68450855709384,
treatment,0% Never,100% Always,images\ LCHEEK_CFD_LF_224_176_N.png,0,0,0,0,0,93,93,31,,,,,,,,,,,,,,,,,,,,,,,,,,,2023-04-07_19h36.32.320,FaceAttractiveness,2022.2.5,139.68450855709384,
treatment,0% Never,100% Always,images\FOREHEAD_CFD_LM_203_026_N.png,0,0,0,0,0,94,94,14,,,,,,,,,,,,,,,,,,,,,,,,,,,2023-04-07_19h36.32.320,FaceAttractiveness,2022.2.5,139.68450855709384,
treatment,0% Never,100% Always,"images\ NASALTIP_136_M_M_N_A.png
",0,0,0,0,1,0,95,60,,,,,,,,,,,,,,,,,,,,,,,,,,,2023-04-07_19h36.32.320,FaceAttractiveness,2022.2.5,139.68450855709384,
treatment,0% Never,100% Always,"images\ RCHEEK_CFD_AM_233_236_N.png
",0,0,0,0,1,1,96,83,,,,,,,,,,,,,,,,,,,,,,,,,,,2023-04-07_19h36.32.320,FaceAttractiveness,2022.2.5,139.68450855709384,
treatment,0% Never,100% Always,images\ LCHEEK_CFD_WM_212_097_N.png,0,0,0,0,1,2,97,37,,,,,,,,,,,,,,,,,,,,,,,,,,,2023-04-07_19h36.32.320,FaceAttractiveness,2022.2.5,139.68450855709384,
treatment,0% Never,100% Always,"images\ LIP_136_M_M_N_A.png
",0,0,0,0,1,3,98,41,,,,,,,,,,,,,,,,,,,,,,,,,,,2023-04-07_19h36.32.320,FaceAttractiveness,2022.2.5,139.68450855709384,
treatment,0% Never,100% Always,images\ NASALTIP_CFD_AF_231_357_N.png,0,0,0,0,1,4,99,61,,,,,,,,,,,,,,,,,,,,,,,,,,,2023-04-07_19h36.32.320,FaceAttractiveness,2022.2.5,139.68450855709384,
treatment,0% Never,100% Always,images\ NASALTIP_CFD_WM_212_097_N.png,0,0,0,0,1,5,100,75,,,,,,,,,,,,,,,,,,,,,,,,,,,2023-04-07_19h36.32.320,FaceAttractiveness,2022.2.5,139.68450855709384,
treatment,0% Never,100% Always,images\ LCHEEK_CFD_BF_214_308_N.png,0,0,0,0,1,6,101,27,,,,,,,,,,,,,,,,,,,,,,,,,,,2023-04-07_19h36.32.320,FaceAttractiveness,2022.2.5,139.68450855709384,
treatment,0% Never,100% Always,images\ LCHEEK_CFD_AF_237_223_N.png,0,0,0,0,1,7,102,24,,,,,,,,,,,,,,,,,,,,,,,,,,,2023-04-07_19h36.32.320,FaceAttractiveness,2022.2.5,139.68450855709384,
treatment,0% Never,100% Always,images\ LIP_CFD_BM_213_134_N.png,0,0,0,0,1,8,103,48,,,,,,,,,,,,,,,,,,,,,,,,,,,2023-04-07_19h36.32.320,FaceAttractiveness,2022.2.5,139.68450855709384,
treatment,0% Never,100% Always,images\ LIP_CFD_BF_224_002_N.png,0,0,0,0,1,9,104,47,,,,,,,,,,,,,,,,,,,,,,,,,,,2023-04-07_19h36.32.320,FaceAttractiveness,2022.2.5,139.68450855709384,
treatment,0% Never,100% Always,images\ RCHEEK_CFD_BM_213_134_N.png,0,0,0,0,1,10,105,86,,,,,,,,,,,,,,,,,,,,,,,,,,,2023-04-07_19h36.32.320,FaceAttractiveness,2022.2.5,139.68450855709384,
treatment,0% Never,100% Always,images\ LCHEEK_CFD_AF_231_357_N.png,0,0,0,0,1,11,106,23,,,,,,,,,,,,,,,,,,,,,,,,,,,2023-04-07_19h36.32.320,FaceAttractiveness,2022.2.5,139.68450855709384,
treatment,0% Never,100% Always,images\ LIP_CFD_LF_224_176_N.png,0,0,0,0,1,12,107,50,,,,,,,,,,,,,,,,,,,,,,,,,,,2023-04-07_19h36.32.320,FaceAttractiveness,2022.2.5,139.68450855709384,
treatment,0% Never,100% Always,images\FOREHEAD_CFD_LM_203_026_N.png,0,0,0,0,1,13,108,14,,,,,,,,,,,,,,,,,,,,,,,,,,,2023-04-07_19h36.32.320,FaceAttractiveness,2022.2.5,139.68450855709384,
treatment,0% Never,100% Always,images\ LCHEEK_CFD_WF_250_167_N.png,0,0,0,0,1,14,109,36,,,,,,,,,,,,,,,,,,,,,,,,,,,2023-04-07_19h36.32.320,FaceAttractiveness,2022.2.5,139.68450855709384,
treatment,0% Never,100% Always,images\FOREHEAD_CFD_LM_201_057_N.png,0,0,0,0,1,15,110,13,,,,,,,,,,,,,,,,,,,,,,,,,,,2023-04-07_19h36.32.320,FaceAttractiveness,2022.2.5,139.68450855709384,
treatment,0% Never,100% Always,images\ LCHEEK_CFD_LM_203_026_N.png,0,0,0,0,1,16,111,33,,,,,,,,,,,,,,,,,,,,,,,,,,,2023-04-07_19h36.32.320,FaceAttractiveness,2022.2.5,139.68450855709384,
treatment,0% Never,100% Always,images\ LIP_CFD_AF_237_223_N.png,0,0,0,0,1,17,112,43,,,,,,,,,,,,,,,,,,,,,,,,,,,2023-04-07_19h36.32.320,FaceAttractiveness,2022.2.5,139.68450855709384,
treatment,0% Never,100% Always,images\FOREHEAD_CFD_BF_214_308_N.png,0,0,0,0,1,18,113,8,,,,,,,,,,,,,,,,,,,,,,,,,,,2023-04-07_19h36.32.320,FaceAttractiveness,2022.2.5,139.68450855709384,
treatment,0% Never,100% Always,images\ NASALTIP_CFD_BF_224_002_N.png,0,0,0,0,1,19,114,66,,,,,,,,,,,,,,,,,,,,,,,,,,,2023-04-07_19h36.32.320,FaceAttractiveness,2022.2.5,139.68450855709384,
treatment,0% Never,100% Always,images\ RCHEEK_CFD_BF_214_308_N.png,0,0,0,0,1,20,115,84,,,,,,,,,,,,,,,,,,,,,,,,,,,2023-04-07_19h36.32.320,FaceAttractiveness,2022.2.5,139.68450855709384,
treatment,0% Never,100% Always,images\ LCHEEK_035_M_F_N_A.png,0,0,0,0,1,21,116,20,,,,,,,,,,,,,,,,,,,,,,,,,,,2023-04-07_19h36.32.320,FaceAttractiveness,2022.2.5,139.68450855709384,
treatment,0% Never,100% Always,images\ LIP_087_M_M_N_A.png,0,0,0,0,1,22,117,40,,,,,,,,,,,,,,,,,,,,,,,,,,,2023-04-07_19h36.32.320,FaceAttractiveness,2022.2.5,139.68450855709384,
treatment,0% Never,100% Always,images\ LIP_035_M_F_N_A.png,0,0,0,0,1,23,118,39,,,,,,,,,,,,,,,,,,,,,,,,,,,2023-04-07_19h36.32.320,FaceAttractiveness,2022.2.5,139.68450855709384,
treatment,0% Never,100% Always,images\FOREHEAD_CFD_AF_237_223_N.png,0,0,0,0,1,24,119,5,,,,,,,,,,,,,,,,,,,,,,,,,,,2023-04-07_19h36.32.320,FaceAttractiveness,2022.2.5,139.68450855709384,
treatment,0% Never,100% Always,images\ NASALTIP_CFD_AF_237_223_N.png,0,0,0,0,1,25,120,62,,,,,,,,,,,,,,,,,,,,,,,,,,,2023-04-07_19h36.32.320,FaceAttractiveness,2022.2.5,139.68450855709384,
treatment,0% Never,100% Always,images\ RCHEEK_006_M_F_N_A.png,0,0,0,0,1,26,121,76,,,,,,,,,,,,,,,,,,,,,,,,,,,2023-04-07_19h36.32.320,FaceAttractiveness,2022.2.5,139.68450855709384,
treatment,0% Never,100% Always,images\FOREHEAD_CFD_AM_233_236_N.png,0,0,0,0,1,27,122,7,,,,,,,,,,,,,,,,,,,,,,,,,,,2023-04-07_19h36.32.320,FaceAttractiveness,2022.2.5,139.68450855709384,
treatment,0% Never,100% Always,"images\ NASALTIP_CFD_BM_234_172_N.png
",0,0,0,0,1,28,123,68,,,,,,,,,,,,,,,,,,,,,,,,,,,2023-04-07_19h36.32.320,FaceAttractiveness,2022.2.5,139.68450855709384,
treatment,0% Never,100% Always,images\ NASALTIP_CFD_LF_224_176_N.png,0,0,0,0,1,29,124,69,,,,,,,,,,,,,,,,,,,,,,,,,,,2023-04-07_19h36.32.320,FaceAttractiveness,2022.2.5,139.68450855709384,
treatment,0% Never,100% Always,images\FOREHEAD_CFD_WF_200_099_N.png,0,0,0,0,1,30,125,16,,,,,,,,,,,,,,,,,,,,,,,,,,,2023-04-07_19h36.32.320,FaceAttractiveness,2022.2.5,139.68450855709384,
treatment,0% Never,100% Always,images\FOREHEAD_CFD_BF_224_002_N.png,0,0,0,0,1,31,126,9,,,,,,,,,,,,,,,,,,,,,,,,,,,2023-04-07_19h36.32.320,FaceAttractiveness,2022.2.5,139.68450855709384,
treatment,0% Never,100% Always,images\ LCHEEK_CFD_WF_200_099_N.png,0,0,0,0,1,32,127,35,,,,,,,,,,,,,,,,,,,,,,,,,,,2023-04-07_19h36.32.320,FaceAttractiveness,2022.2.5,139.68450855709384,
treatment,0% Never,100% Always,images\FOREHEAD_CFD_BM_234_172_N.png,0,0,0,0,1,33,128,11,,,,,,,,,,,,,,,,,,,,,,,,,,,2023-04-07_19h36.32.320,FaceAttractiveness,2022.2.5,139.68450855709384,
treatment,0% Never,100% Always,images\ RCHEEK_CFD_BF_224_002_N.png,0,0,0,0,1,34,129,85,,,,,,,,,,,,,,,,,,,,,,,,,,,2023-04-07_19h36.32.320,FaceAttractiveness,2022.2.5,139.68450855709384,
treatment,0% Never,100% Always,images\ NASALTIP_CFD_LM_201_057_N.png,0,0,0,0,1,35,130,70,,,,,,,,,,,,,,,,,,,,,,,,,,,2023-04-07_19h36.32.320,FaceAttractiveness,2022.2.5,139.68450855709384,
treatment,0% Never,100% Always,"images\ NASALTIP_CFD_WF_002_004_N.png
",0,0,0,0,1,36,131,72,,,,,,,,,,,,,,,,,,,,,,,,,,,2023-04-07_19h36.32.320,FaceAttractiveness,2022.2.5,139.68450855709384,
treatment,0% Never,100% Always,images\ RCHEEK_CFD_AF_245_143_N.png,0,0,0,0,1,37,132,82,,,,,,,,,,,,,,,,,,,,,,,,,,,2023-04-07_19h36.32.320,FaceAttractiveness,2022.2.5,139.68450855709384,
treatment,0% Never,100% Always,images\FOREHEAD_087_M_M_N_A.png,0,0,0,0,1,38,133,2,,,,,,,,,,,,,,,,,,,,,,,,,,,2023-04-07_19h36.32.320,FaceAttractiveness,2022.2.5,139.68450855709384,
treatment,0% Never,100% Always,images\ LCHEEK_CFD_BF_224_002_N.png,0,0,0,0,1,39,134,28,,,,,,,,,,,,,,,,,,,,,,,,,,,2023-04-07_19h36.32.320,FaceAttractiveness,2022.2.5,139.68450855709384,
treatment,0% Never,100% Always,images\ LIP_CFD_WM_212_097_N.png,0,0,0,0,1,40,135,56,,,,,,,,,,,,,,,,,,,,,,,,,,,2023-04-07_19h36.32.320,FaceAttractiveness,2022.2.5,139.68450855709384,
treatment,0% Never,100% Always,"images\ LIP_CFD_BM_234_172_N.png
",0,0,0,0,1,41,136,49,,,,,,,,,,,,,,,,,,,,,,,,,,,2023-04-07_19h36.32.320,FaceAttractiveness,2022.2.5,139.68450855709384,
treatment,0% Never,100% Always,images\ RCHEEK_CFD_WF_250_167_N.png,0,0,0,0,1,42,137,93,,,,,,,,,,,,,,,,,,,,,,,,,,,2023-04-07_19h36.32.320,FaceAttractiveness,2022.2.5,139.68450855709384,
treatment,0% Never,100% Always,images\ LIP_CFD_LM_203_026_N.png,0,0,0,0,1,43,138,52,,,,,,,,,,,,,,,,,,,,,,,,,,,2023-04-07_19h36.32.320,FaceAttractiveness,2022.2.5,139.68450855709384,
treatment,0% Never,100% Always,images\FOREHEAD_136_M_M_N_A.png,0,0,0,0,1,44,139,3,,,,,,,,,,,,,,,,,,,,,,,,,,,2023-04-07_19h36.32.320,FaceAttractiveness,2022.2.5,139.68450855709384,
treatment,0% Never,100% Always,images\ LCHEEK_CFD_BM_213_134_N.png,0,0,0,0,1,45,140,29,,,,,,,,,,,,,,,,,,,,,,,,,,,2023-04-07_19h36.32.320,FaceAttractiveness,2022.2.5,139.68450855709384,
treatment,0% Never,100% Always,images\ NASALTIP_087_M_M_N_A.png,0,0,0,0,1,46,141,59,,,,,,,,,,,,,,,,,,,,,,,,,,,2023-04-07_19h36.32.320,FaceAttractiveness,2022.2.5,139.68450855709384,
treatment,0% Never,100% Always,images\ RCHEEK_087_M_M_N_A.png,0,0,0,0,1,47,142,78,,,,,,,,,,,,,,,,,,,,,,,,,,,2023-04-07_19h36.32.320,FaceAttractiveness,2022.2.5,139.68450855709384,
treatment,0% Never,100% Always,images\ NASALTIP_006_M_F_N_A.png,0,0,0,0,1,48,143,57,,,,,,,,,,,,,,,,,,,,,,,,,,,2023-04-07_19h36.32.320,FaceAttractiveness,2022.2.5,139.68450855709384,
treatment,0% Never,100% Always,images\ LIP_CFD_AF_245_143_N.png,0,0,0,0,1,49,144,44,,,,,,,,,,,,,,,,,,,,,,,,,,,2023-04-07_19h36.32.320,FaceAttractiveness,2022.2.5,139.68450855709384,
treatment,0% Never,100% Always,images\ LCHEEK_CFD_LF_224_176_N.png,0,0,0,0,1,50,145,31,,,,,,,,,,,,,,,,,,,,,,,,,,,2023-04-07_19h36.32.320,FaceAttractiveness,2022.2.5,139.68450855709384,
treatment,0% Never,100% Always,"images\ LCHEEK_CFD_BM_234_172_N.png
",0,0,0,0,1,51,146,30,,,,,,,,,,,,,,,,,,,,,,,,,,,2023-04-07_19h36.32.320,FaceAttractiveness,2022.2.5,139.68450855709384,
treatment,0% Never,100% Always,images\ RCHEEK_CFD_AF_237_223_N.png,0,0,0,0,1,52,147,81,,,,,,,,,,,,,,,,,,,,,,,,,,,2023-04-07_19h36.32.320,FaceAttractiveness,2022.2.5,139.68450855709384,
treatment,0% Never,100% Always,"images\ RCHEEK_CFD_BM_234_172_N.png
",0,0,0,0,1,53,148,87,,,,,,,,,,,,,,,,,,,,,,,,,,,2023-04-07_19h36.32.320,FaceAttractiveness,2022.2.5,139.68450855709384,
treatment,0% Never,100% Always,images\ LIP_CFD_WF_200_099_N.png,0,0,0,0,1,54,149,54,,,,,,,,,,,,,,,,,,,,,,,,,,,2023-04-07_19h36.32.320,FaceAttractiveness,2022.2.5,139.68450855709384,
treatment,0% Never,100% Always,"images\ LIP_CFD_AM_233_236_N.png
",0,0,0,0,1,55,150,45,,,,,,,,,,,,,,,,,,,,,,,,,,,2023-04-07_19h36.32.320,FaceAttractiveness,2022.2.5,139.68450855709384,
treatment,0% Never,100% Always,images\ NASALTIP_035_M_F_N_A.png,0,0,0,0,1,56,151,58,,,,,,,,,,,,,,,,,,,,,,,,,,,2023-04-07_19h36.32.320,FaceAttractiveness,2022.2.5,139.68450855709384,
treatment,0% Never,100% Always,images\ LCHEEK_087_M_M_N_A.png,0,0,0,0,1,57,152,21,,,,,,,,,,,,,,,,,,,,,,,,,,,2023-04-07_19h36.32.320,FaceAttractiveness,2022.2.5,139.68450855709384,
treatment,0% Never,100% Always,images\FOREHEAD_CFD_AF_231_357_N.png,0,0,0,0,1,58,153,4,,,,,,,,,,,,,,,,,,,,,,,,,,,2023-04-07_19h36.32.320,FaceAttractiveness,2022.2.5,139.68450855709384,
treatment,0% Never,100% Always,images\FOREHEAD_CFD_BM_213_134_N.png,0,0,0,0,1,59,154,10,,,,,,,,,,,,,,,,,,,,,,,,,,,2023-04-07_19h36.32.320,FaceAttractiveness,2022.2.5,139.68450855709384,
treatment,0% Never,100% Always,images\ NASALTIP_CFD_BF_214_308_N.png,0,0,0,0,1,60,155,65,,,,,,,,,,,,,,,,,,,,,,,,,,,2023-04-07_19h36.32.320,FaceAttractiveness,2022.2.5,139.68450855709384,
treatment,0% Never,100% Always,images\FOREHEAD_CFD_AF_245_143_N.png,0,0,0,0,1,61,156,6,,,,,,,,,,,,,,,,,,,,,,,,,,,2023-04-07_19h36.32.320,FaceAttractiveness,2022.2.5,139.68450855709384,
treatment,0% Never,100% Always,images\ LIP_CFD_WF_250_167_N.png,0,0,0,0,1,62,157,55,,,,,,,,,,,,,,,,,,,,,,,,,,,2023-04-07_19h36.32.320,FaceAttractiveness,2022.2.5,139.68450855709384,
treatment,0% Never,100% Always,"images\ LIP_CFD_WF_002_004_N.png
",0,0,0,0,1,63,158,53,,,,,,,,,,,,,,,,,,,,,,,,,,,2023-04-07_19h36.32.320,FaceAttractiveness,2022.2.5,139.68450855709384,
treatment,0% Never,100% Always,images\FOREHEAD_CFD_WF_002_004_N.png,0,0,0,0,1,64,159,15,,,,,,,,,,,,,,,,,,,,,,,,,,,2023-04-07_19h36.32.320,FaceAttractiveness,2022.2.5,139.68450855709384,
treatment,0% Never,100% Always,images\ LIP_CFD_BF_214_308_N.png,0,0,0,0,1,65,160,46,,,,,,,,,,,,,,,,,,,,,,,,,,,2023-04-07_19h36.32.320,FaceAttractiveness,2022.2.5,139.68450855709384,
treatment,0% Never,100% Always,images\ LCHEEK_CFD_LM_201_057_N.png,0,0,0,0,1,66,161,32,,,,,,,,,,,,,,,,,,,,,,,,,,,2023-04-07_19h36.32.320,FaceAttractiveness,2022.2.5,139.68450855709384,
treatment,0% Never,100% Always,images\ LIP_006_M_F_N_A.png,0,0,0,0,1,67,162,38,,,,,,,,,,,,,,,,,,,,,,,,,,,2023-04-07_19h36.32.320,FaceAttractiveness,2022.2.5,139.68450855709384,
treatment,0% Never,100% Always,images\FOREHEAD_006_M_F_N_A.png,0,0,0,0,1,68,163,0,,,,,,,,,,,,,,,,,,,,,,,,,,,2023-04-07_19h36.32.320,FaceAttractiveness,2022.2.5,139.68450855709384,
treatment,0% Never,100% Always,images\ LIP_CFD_AF_231_357_N.png,0,0,0,0,1,69,164,42,,,,,,,,,,,,,,,,,,,,,,,,,,,2023-04-07_19h36.32.320,FaceAttractiveness,2022.2.5,139.68450855709384,
treatment,0% Never,100% Always,images\ NASALTIP_CFD_LM_203_026_N.png,0,0,0,0,1,70,165,71,,,,,,,,,,,,,,,,,,,,,,,,,,,2023-04-07_19h36.32.320,FaceAttractiveness,2022.2.5,139.68450855709384,
treatment,0% Never,100% Always,images\ RCHEEK_CFD_LM_203_026_N.png,0,0,0,0,1,71,166,90,,,,,,,,,,,,,,,,,,,,,,,,,,,2023-04-07_19h36.32.320,FaceAttractiveness,2022.2.5,139.68450855709384,
treatment,0% Never,100% Always,images\ LCHEEK_006_M_F_N_A.png,0,0,0,0,1,72,167,19,,,,,,,,,,,,,,,,,,,,,,,,,,,2023-04-07_19h36.32.320,FaceAttractiveness,2022.2.5,139.68450855709384,
treatment,0% Never,100% Always,images\ RCHEEK_CFD_WM_212_097_N.png,0,0,0,0,1,73,168,94,,,,,,,,,,,,,,,,,,,,,,,,,,,2023-04-07_19h36.32.320,FaceAttractiveness,2022.2.5,139.68450855709384,
treatment,0% Never,100% Always,images\ RCHEEK_035_M_F_N_A.png,0,0,0,0,1,74,169,77,,,,,,,,,,,,,,,,,,,,,,,,,,,2023-04-07_19h36.32.320,FaceAttractiveness,2022.2.5,139.68450855709384,
treatment,0% Never,100% Always,images\ LIP_CFD_LM_201_057_N.png,0,0,0,0,1,75,170,51,,,,,,,,,,,,,,,,,,,,,,,,,,,2023-04-07_19h36.32.320,FaceAttractiveness,2022.2.5,139.68450855709384,
treatment,0% Never,100% Always,"images\ LCHEEK_CFD_AM_233_236_N.png
",0,0,0,0,1,76,171,26,,,,,,,,,,,,,,,,,,,,,,,,,,,2023-04-07_19h36.32.320,FaceAttractiveness,2022.2.5,139.68450855709384,
treatment,0% Never,100% Always,"images\ LCHEEK_CFD_WF_002_004_N.png
",0,0,0,0,1,77,172,34,,,,,,,,,,,,,,,,,,,,,,,,,,,2023-04-07_19h36.32.320,FaceAttractiveness,2022.2.5,139.68450855709384,
treatment,0% Never,100% Always,images\ NASALTIP_CFD_AF_245_143_N.png,0,0,0,0,1,78,173,63,,,,,,,,,,,,,,,,,,,,,,,,,,,2023-04-07_19h36.32.320,FaceAttractiveness,2022.2.5,139.68450855709384,
treatment,0% Never,100% Always,images\FOREHEAD_CFD_LF_224_176_N.png,0,0,0,0,1,79,174,12,,,,,,,,,,,,,,,,,,,,,,,,,,,2023-04-07_19h36.32.320,FaceAttractiveness,2022.2.5,139.68450855709384,
treatment,0% Never,100% Always,images\FOREHEAD_CFD_WM_212_097_N.png,0,0,0,0,1,80,175,18,,,,,,,,,,,,,,,,,,,,,,,,,,,2023-04-07_19h36.32.320,FaceAttractiveness,2022.2.5,139.68450855709384,
treatment,0% Never,100% Always,"images\ LCHEEK_136_M_M_N_A.png
",0,0,0,0,1,81,176,22,,,,,,,,,,,,,,,,,,,,,,,,,,,2023-04-07_19h36.32.320,FaceAttractiveness,2022.2.5,139.68450855709384,
treatment,0% Never,100% Always,images\ RCHEEK_CFD_AF_231_357_N.png,0,0,0,0,1,82,177,80,,,,,,,,,,,,,,,,,,,,,,,,,,,2023-04-07_19h36.32.320,FaceAttractiveness,2022.2.5,139.68450855709384,
treatment,0% Never,100% Always,images\FOREHEAD_CFD_WF_250_167_N.png,0,0,0,0,1,83,178,17,,,,,,,,,,,,,,,,,,,,,,,,,,,2023-04-07_19h36.32.320,FaceAttractiveness,2022.2.5,139.68450855709384,
treatment,0% Never,100% Always,images\ RCHEEK_CFD_LM_201_057_N.png,0,0,0,0,1,84,179,89,,,,,,,,,,,,,,,,,,,,,,,,,,,2023-04-07_19h36.32.320,FaceAttractiveness,2022.2.5,139.68450855709384,
treatment,0% Never,100% Always,"images\ RCHEEK_136_M_M_N_A.png
",0,0,0,0,1,85,180,79,,,,,,,,,,,,,,,,,,,,,,,,,,,2023-04-07_19h36.32.320,FaceAttractiveness,2022.2.5,139.68450855709384,
treatment,0% Never,100% Always,images\ NASALTIP_CFD_WF_200_099_N.png,0,0,0,0,1,86,181,73,,,,,,,,,,,,,,,,,,,,,,,,,,,2023-04-07_19h36.32.320,FaceAttractiveness,2022.2.5,139.68450855709384,
treatment,0% Never,100% Always,"images\ RCHEEK_CFD_WF_002_004_N.png
",0,0,0,0,1,87,182,91,,,,,,,,,,,,,,,,,,,,,,,,,,,2023-04-07_19h36.32.320,FaceAttractiveness,2022.2.5,139.68450855709384,
treatment,0% Never,100% Always,images\ RCHEEK_CFD_LF_224_176_N.png,0,0,0,0,1,88,183,88,,,,,,,,,,,,,,,,,,,,,,,,,,,2023-04-07_19h36.32.320,FaceAttractiveness,2022.2.5,139.68450855709384,
treatment,0% Never,100% Always,images\ RCHEEK_CFD_WF_200_099_N.png,0,0,0,0,1,89,184,92,,,,,,,,,,,,,,,,,,,,,,,,,,,2023-04-07_19h36.32.320,FaceAttractiveness,2022.2.5,139.68450855709384,
treatment,0% Never,100% Always,images\ NASALTIP_CFD_WF_250_167_N.png,0,0,0,0,1,90,185,74,,,,,,,,,,,,,,,,,,,,,,,,,,,2023-04-07_19h36.32.320,FaceAttractiveness,2022.2.5,139.68450855709384,
treatment,0% Never,100% Always,"images\ NASALTIP_CFD_AM_233_236_N.png
",0,0,0,0,1,91,186,64,,,,,,,,,,,,,,,,,,,,,,,,,,,2023-04-07_19h36.32.320,FaceAttractiveness,2022.2.5,139.68450855709384,
treatment,0% Never,100% Always,images\FOREHEAD_035_M_F_N_A.png,0,0,0,0,1,92,187,1,,,,,,,,,,,,,,,,,,,,,,,,,,,2023-04-07_19h36.32.320,FaceAttractiveness,2022.2.5,139.68450855709384,
treatment,0% Never,100% Always,images\ NASALTIP_CFD_BM_213_134_N.png,0,0,0,0,1,93,188,67,,,,,,,,,,,,,,,,,,,,,,,,,,,2023-04-07_19h36.32.320,FaceAttractiveness,2022.2.5,139.68450855709384,
treatment,0% Never,100% Always,images\ LCHEEK_CFD_AF_245_143_N.png,0,0,0,0,1,94,189,25,,,,,,,,,,,,,,,,,,,,,,,,,,,2023-04-07_19h36.32.320,FaceAttractiveness,2022.2.5,139.68450855709384,
treatment,0% Never,100% Always,"images\ RCHEEK_CFD_BM_234_172_N.png
",0,0,0,0,2,0,190,87,,,,,,,,,,,,,,,,,,,,,,,,,,,2023-04-07_19h36.32.320,FaceAttractiveness,2022.2.5,139.68450855709384,
treatment,0% Never,100% Always,images\ NASALTIP_006_M_F_N_A.png,0,0,0,0,2,1,191,57,,,,,,,,,,,,,,,,,,,,,,,,,,,2023-04-07_19h36.32.320,FaceAttractiveness,2022.2.5,139.68450855709384,
treatment,0% Never,100% Always,"images\ LIP_136_M_M_N_A.png
",0,0,0,0,2,2,192,41,,,,,,,,,,,,,,,,,,,,,,,,,,,2023-04-07_19h36.32.320,FaceAttractiveness,2022.2.5,139.68450855709384,
treatment,0% Never,100% Always,images\FOREHEAD_CFD_LF_224_176_N.png,0,0,0,0,2,3,193,12,,,,,,,,,,,,,,,,,,,,,,,,,,,2023-04-07_19h36.32.320,FaceAttractiveness,2022.2.5,139.68450855709384,
treatment,0% Never,100% Always,images\ LIP_CFD_BF_224_002_N.png,0,0,0,0,2,4,194,47,,,,,,,,,,,,,,,,,,,,,,,,,,,2023-04-07_19h36.32.320,FaceAttractiveness,2022.2.5,139.68450855709384,
treatment,0% Never,100% Always,images\ LIP_CFD_LF_224_176_N.png,0,0,0,0,2,5,195,50,,,,,,,,,,,,,,,,,,,,,,,,,,,2023-04-07_19h36.32.320,FaceAttractiveness,2022.2.5,139.68450855709384,
treatment,0% Never,100% Always,images\FOREHEAD_035_M_F_N_A.png,0,0,0,0,2,6,196,1,,,,,,,,,,,,,,,,,,,,,,,,,,,2023-04-07_19h36.32.320,FaceAttractiveness,2022.2.5,139.68450855709384,
treatment,0% Never,100% Always,images\ NASALTIP_CFD_BF_214_308_N.png,0,0,0,0,2,7,197,65,,,,,,,,,,,,,,,,,,,,,,,,,,,2023-04-07_19h36.32.320,FaceAttractiveness,2022.2.5,139.68450855709384,
treatment,0% Never,100% Always,images\ LCHEEK_CFD_AF_231_357_N.png,0,0,0,0,2,8,198,23,,,,,,,,,,,,,,,,,,,,,,,,,,,2023-04-07_19h36.32.320,FaceAttractiveness,2022.2.5,139.68450855709384,
treatment,0% Never,100% Always,"images\ LCHEEK_136_M_M_N_A.png
",0,0,0,0,2,9,199,22,,,,,,,,,,,,,,,,,,,,,,,,,,,2023-04-07_19h36.32.320,FaceAttractiveness,2022.2.5,139.68450855709384,
treatment,0% Never,100% Always,"images\ RCHEEK_136_M_M_N_A.png
",0,0,0,0,2,10,200,79,,,,,,,,,,,,,,,,,,,,,,,,,,,2023-04-07_19h36.32.320,FaceAttractiveness,2022.2.5,139.68450855709384,
treatment,0% Never,100% Always,images\ LCHEEK_CFD_LM_201_057_N.png,0,0,0,0,2,11,201,32,,,,,,,,,,,,,,,,,,,,,,,,,,,2023-04-07_19h36.32.320,FaceAttractiveness,2022.2.5,139.68450855709384,
treatment,0% Never,100% Always,images\ RCHEEK_CFD_WF_250_167_N.png,0,0,0,0,2,12,202,93,,,,,,,,,,,,,,,,,,,,,,,,,,,2023-04-07_19h36.32.320,FaceAttractiveness,2022.2.5,139.68450855709384,
treatment,0% Never,100% Always,images\ LCHEEK_CFD_WF_200_099_N.png,0,0,0,0,2,13,203,35,,,,,,,,,,,,,,,,,,,,,,,,,,,2023-04-07_19h36.32.320,FaceAttractiveness,2022.2.5,139.68450855709384,
treatment,0% Never,100% Always,images\FOREHEAD_CFD_WF_002_004_N.png,0,0,0,0,2,14,204,15,,,,,,,,,,,,,,,,,,,,,,,,,,,2023-04-07_19h36.32.320,FaceAttractiveness,2022.2.5,139.68450855709384,
treatment,0% Never,100% Always,"images\ NASALTIP_CFD_WF_002_004_N.png
",0,0,0,0,2,15,205,72,,,,,,,,,,,,,,,,,,,,,,,,,,,2023-04-07_19h36.32.320,FaceAttractiveness,2022.2.5,139.68450855709384,
treatment,0% Never,100% Always,images\ RCHEEK_CFD_AF_237_223_N.png,0,0,0,0,2,16,206,81,,,,,,,,,,,,,,,,,,,,,,,,,,,2023-04-07_19h36.32.320,FaceAttractiveness,2022.2.5,139.68450855709384,
treatment,0% Never,100% Always,images\ LIP_CFD_BF_214_308_N.png,0,0,0,0,2,17,207,46,,,,,,,,,,,,,,,,,,,,,,,,,,,2023-04-07_19h36.32.320,FaceAttractiveness,2022.2.5,139.68450855709384,
treatment,0% Never,100% Always,images\FOREHEAD_087_M_M_N_A.png,0,0,0,0,2,18,208,2,,,,,,,,,,,,,,,,,,,,,,,,,,,2023-04-07_19h36.32.320,FaceAttractiveness,2022.2.5,139.68450855709384,
treatment,0% Never,100% Always,images\ LIP_006_M_F_N_A.png,0,0,0,0,2,19,209,38,,,,,,,,,,,,,,,,,,,,,,,,,,,2023-04-07_19h36.32.320,FaceAttractiveness,2022.2.5,139.68450855709384,
treatment,0% Never,100% Always,images\FOREHEAD_CFD_WF_200_099_N.png,0,0,0,0,2,20,210,16,,,,,,,,,,,,,,,,,,,,,,,,,,,2023-04-07_19h36.32.320,FaceAttractiveness,2022.2.5,139.68450855709384,
treatment,0% Never,100% Always,images\ LCHEEK_087_M_M_N_A.png,0,0,0,0,2,21,211,21,,,,,,,,,,,,,,,,,,,,,,,,,,,2023-04-07_19h36.32.320,FaceAttractiveness,2022.2.5,139.68450855709384,
treatment,0% Never,100% Always,images\ NASALTIP_CFD_BM_213_134_N.png,0,0,0,0,2,22,212,67,,,,,,,,,,,,,,,,,,,,,,,,,,,2023-04-07_19h36.32.320,FaceAttractiveness,2022.2.5,139.68450855709384,
treatment,0% Never,100% Always,images\ NASALTIP_CFD_AF_231_357_N.png,0,0,0,0,2,23,213,61,,,,,,,,,,,,,,,,,,,,,,,,,,,2023-04-07_19h36.32.320,FaceAttractiveness,2022.2.5,139.68450855709384,
treatment,0% Never,100% Always,images\ RCHEEK_CFD_BF_214_308_N.png,0,0,0,0,2,24,214,84,,,,,,,,,,,,,,,,,,,,,,,,,,,2023-04-07_19h36.32.320,FaceAttractiveness,2022.2.5,139.68450855709384,
treatment,0% Never,100% Always,images\FOREHEAD_CFD_WF_250_167_N.png,0,0,0,0,2,25,215,17,,,,,,,,,,,,,,,,,,,,,,,,,,,2023-04-07_19h36.32.320,FaceAttractiveness,2022.2.5,139.68450855709384,
treatment,0% Never,100% Always,images\ LCHEEK_035_M_F_N_A.png,0,0,0,0,2,26,216,20,,,,,,,,,,,,,,,,,,,,,,,,,,,2023-04-07_19h36.32.320,FaceAttractiveness,2022.2.5,139.68450855709384,
treatment,0% Never,100% Always,images\ LCHEEK_006_M_F_N_A.png,0,0,0,0,2,27,217,19,,,,,,,,,,,,,,,,,,,,,,,,,,,2023-04-07_19h36.32.320,FaceAttractiveness,2022.2.5,139.68450855709384,
treatment,0% Never,100% Always,images\FOREHEAD_006_M_F_N_A.png,0,0,0,0,2,28,218,0,,,,,,,,,,,,,,,,,,,,,,,,,,,2023-04-07_19h36.32.320,FaceAttractiveness,2022.2.5,139.68450855709384,
treatment,0% Never,100% Always,images\ RCHEEK_006_M_F_N_A.png,0,0,0,0,2,29,219,76,,,,,,,,,,,,,,,,,,,,,,,,,,,2023-04-07_19h36.32.320,FaceAttractiveness,2022.2.5,139.68450855709384,
treatment,0% Never,100% Always,images\ RCHEEK_CFD_LF_224_176_N.png,0,0,0,0,2,30,220,88,,,,,,,,,,,,,,,,,,,,,,,,,,,2023-04-07_19h36.32.320,FaceAttractiveness,2022.2.5,139.68450855709384,
treatment,0% Never,100% Always,images\ RCHEEK_CFD_BF_224_002_N.png,0,0,0,0,2,31,221,85,,,,,,,,,,,,,,,,,,,,,,,,,,,2023-04-07_19h36.32.320,FaceAttractiveness,2022.2.5,139.68450855709384,
treatment,0% Never,100% Always,images\ LIP_CFD_AF_245_143_N.png,0,0,0,0,2,32,222,44,,,,,,,,,,,,,,,,,,,,,,,,,,,2023-04-07_19h36.32.320,FaceAttractiveness,2022.2.5,139.68450855709384,
treatment,0% Never,100% Always,images\ NASALTIP_CFD_WF_200_099_N.png,0,0,0,0,2,33,223,73,,,,,,,,,,,,,,,,,,,,,,,,,,,2023-04-07_19h36.32.320,FaceAttractiveness,2022.2.5,139.68450855709384,
treatment,0% Never,100% Always,"images\ LIP_CFD_BM_234_172_N.png
",0,0,0,0,2,34,224,49,,,,,,,,,,,,,,,,,,,,,,,,,,,2023-04-07_19h36.32.320,FaceAttractiveness,2022.2.5,139.68450855709384,
treatment,0% Never,100% Always,images\ LIP_087_M_M_N_A.png,0,0,0,0,2,35,225,40,,,,,,,,,,,,,,,,,,,,,,,,,,,2023-04-07_19h36.32.320,FaceAttractiveness,2022.2.5,139.68450855709384,
treatment,0% Never,100% Always,images\FOREHEAD_CFD_BM_213_134_N.png,0,0,0,0,2,36,226,10,,,,,,,,,,,,,,,,,,,,,,,,,,,2023-04-07_19h36.32.320,FaceAttractiveness,2022.2.5,139.68450855709384,
treatment,0% Never,100% Always,images\ RCHEEK_CFD_LM_203_026_N.png,0,0,0,0,2,37,227,90,,,,,,,,,,,,,,,,,,,,,,,,,,,2023-04-07_19h36.32.320,FaceAttractiveness,2022.2.5,139.68450855709384,
treatment,0% Never,100% Always,images\ LIP_CFD_WF_250_167_N.png,0,0,0,0,2,38,228,55,,,,,,,,,,,,,,,,,,,,,,,,,,,2023-04-07_19h36.32.320,FaceAttractiveness,2022.2.5,139.68450855709384,
treatment,0% Never,100% Always,"images\ NASALTIP_136_M_M_N_A.png
",0,0,0,0,2,39,229,60,,,,,,,,,,,,,,,,,,,,,,,,,,,2023-04-07_19h36.32.320,FaceAttractiveness,2022.2.5,139.68450855709384,
treatment,0% Never,100% Always,images\ NASALTIP_CFD_AF_237_223_N.png,0,0,0,0,2,40,230,62,,,,,,,,,,,,,,,,,,,,,,,,,,,2023-04-07_19h36.32.320,FaceAttractiveness,2022.2.5,139.68450855709384,
treatment,0% Never,100% Always,"images\ LIP_CFD_WF_002_004_N.png
",0,0,0,0,2,41,231,53,,,,,,,,,,,,,,,,,,,,,,,,,,,2023-04-07_19h36.32.320,FaceAttractiveness,2022.2.5,139.68450855709384,
treatment,0% Never,100% Always,"images\ LCHEEK_CFD_WF_002_004_N.png
",0,0,0,0,2,42,232,34,,,,,,,,,,,,,,,,,,,,,,,,,,,2023-04-07_19h36.32.320,FaceAttractiveness,2022.2.5,139.68450855709384,
treatment,0% Never,100% Always,images\ RCHEEK_CFD_LM_201_057_N.png,0,0,0,0,2,43,233,89,,,,,,,,,,,,,,,,,,,,,,,,,,,2023-04-07_19h36.32.320,FaceAttractiveness,2022.2.5,139.68450855709384,
treatment,0% Never,100% Always,images\ LCHEEK_CFD_LM_203_026_N.png,0,0,0,0,2,44,234,33,,,,,,,,,,,,,,,,,,,,,,,,,,,2023-04-07_19h36.32.320,FaceAttractiveness,2022.2.5,139.68450855709384,
treatment,0% Never,100% Always,images\ NASALTIP_CFD_LF_224_176_N.png,0,0,0,0,2,45,235,69,,,,,,,,,,,,,,,,,,,,,,,,,,,2023-04-07_19h36.32.320,FaceAttractiveness,2022.2.5,139.68450855709384,
treatment,0% Never,100% Always,images\FOREHEAD_CFD_AF_231_357_N.png,0,0,0,0,2,46,236,4,,,,,,,,,,,,,,,,,,,,,,,,,,,2023-04-07_19h36.32.320,FaceAttractiveness,2022.2.5,139.68450855709384,
treatment,0% Never,100% Always,images\ NASALTIP_CFD_AF_245_143_N.png,0,0,0,0,2,47,237,63,,,,,,,,,,,,,,,,,,,,,,,,,,,2023-04-07_19h36.32.320,FaceAttractiveness,2022.2.5,139.68450855709384,
treatment,0% Never,100% Always,images\ LIP_CFD_AF_231_357_N.png,0,0,0,0,2,48,238,42,,,,,,,,,,,,,,,,,,,,,,,,,,,2023-04-07_19h36.32.320,FaceAttractiveness,2022.2.5,139.68450855709384,
treatment,0% Never,100% Always,images\ RCHEEK_CFD_AF_245_143_N.png,0,0,0,0,2,49,239,82,,,,,,,,,,,,,,,,,,,,,,,,,,,2023-04-07_19h36.32.320,FaceAttractiveness,2022.2.5,139.68450855709384,
treatment,0% Never,100% Always,"images\ NASALTIP_CFD_AM_233_236_N.png
",0,0,0,0,2,50,240,64,,,,,,,,,,,,,,,,,,,,,,,,,,,2023-04-07_19h36.32.320,FaceAttractiveness,2022.2.5,139.68450855709384,
treatment,0% Never,100% Always,images\ NASALTIP_CFD_LM_201_057_N.png,0,0,0,0,2,51,241,70,,,,,,,,,,,,,,,,,,,,,,,,,,,2023-04-07_19h36.32.320,FaceAttractiveness,2022.2.5,139.68450855709384,
treatment,0% Never,100% Always,"images\ RCHEEK_CFD_WF_002_004_N.png
",0,0,0,0,2,52,242,91,,,,,,,,,,,,,,,,,,,,,,,,,,,2023-04-07_19h36.32.320,FaceAttractiveness,2022.2.5,139.68450855709384,
treatment,0% Never,100% Always,images\ LIP_CFD_AF_237_223_N.png,0,0,0,0,2,53,243,43,,,,,,,,,,,,,,,,,,,,,,,,,,,2023-04-07_19h36.32.320,FaceAttractiveness,2022.2.5,139.68450855709384,
treatment,0% Never,100% Always,images\ LCHEEK_CFD_BF_224_002_N.png,0,0,0,0,2,54,244,28,,,,,,,,,,,,,,,,,,,,,,,,,,,2023-04-07_19h36.32.320,FaceAttractiveness,2022.2.5,139.68450855709384,
treatment,0% Never,100% Always,images\FOREHEAD_CFD_AF_237_223_N.png,0,0,0,0,2,55,245,5,,,,,,,,,,,,,,,,,,,,,,,,,,,2023-04-07_19h36.32.320,FaceAttractiveness,2022.2.5,139.68450855709384,
treatment,0% Never,100% Always,images\FOREHEAD_CFD_BM_234_172_N.png,0,0,0,0,2,56,246,11,,,,,,,,,,,,,,,,,,,,,,,,,,,2023-04-07_19h36.32.320,FaceAttractiveness,2022.2.5,139.68450855709384,
treatment,0% Never,100% Always,"images\ NASALTIP_CFD_BM_234_172_N.png
",0,0,0,0,2,57,247,68,,,,,,,,,,,,,,,,,,,,,,,,,,,2023-04-07_19h36.32.320,FaceAttractiveness,2022.2.5,139.68450855709384,
treatment,0% Never,100% Always,images\ NASALTIP_CFD_BF_224_002_N.png,0,0,0,0,2,58,248,66,,,,,,,,,,,,,,,,,,,,,,,,,,,2023-04-07_19h36.32.320,FaceAttractiveness,2022.2.5,139.68450855709384,
treatment,0% Never,100% Always,images\FOREHEAD_CFD_WM_212_097_N.png,0,0,0,0,2,59,249,18,,,,,,,,,,,,,,,,,,,,,,,,,,,2023-04-07_19h36.32.320,FaceAttractiveness,2022.2.5,139.68450855709384,
treatment,0% Never,100% Always,images\FOREHEAD_CFD_BF_224_002_N.png,0,0,0,0,2,60,250,9,,,,,,,,,,,,,,,,,,,,,,,,,,,2023-04-07_19h36.32.320,FaceAttractiveness,2022.2.5,139.68450855709384,
treatment,0% Never,100% Always,images\ LCHEEK_CFD_BF_214_308_N.png,0,0,0,0,2,61,251,27,,,,,,,,,,,,,,,,,,,,,,,,,,,2023-04-07_19h36.32.320,FaceAttractiveness,2022.2.5,139.68450855709384,
treatment,0% Never,100% Always,"images\ LCHEEK_CFD_BM_234_172_N.png
",0,0,0,0,2,62,252,30,,,,,,,,,,,,,,,,,,,,,,,,,,,2023-04-07_19h36.32.320,FaceAttractiveness,2022.2.5,139.68450855709384,
treatment,0% Never,100% Always,images\FOREHEAD_CFD_AF_245_143_N.png,0,0,0,0,2,63,253,6,,,,,,,,,,,,,,,,,,,,,,,,,,,2023-04-07_19h36.32.320,FaceAttractiveness,2022.2.5,139.68450855709384,
treatment,0% Never,100% Always,"images\ RCHEEK_CFD_AM_233_236_N.png
",0,0,0,0,2,64,254,83,,,,,,,,,,,,,,,,,,,,,,,,,,,2023-04-07_19h36.32.320,FaceAttractiveness,2022.2.5,139.68450855709384,
treatment,0% Never,100% Always,images\FOREHEAD_CFD_LM_201_057_N.png,0,0,0,0,2,65,255,13,,,,,,,,,,,,,,,,,,,,,,,,,,,2023-04-07_19h36.32.320,FaceAttractiveness,2022.2.5,139.68450855709384,
treatment,0% Never,100% Always,images\ NASALTIP_035_M_F_N_A.png,0,0,0,0,2,66,256,58,,,,,,,,,,,,,,,,,,,,,,,,,,,2023-04-07_19h36.32.320,FaceAttractiveness,2022.2.5,139.68450855709384,
treatment,0% Never,100% Always,images\ LCHEEK_CFD_WM_212_097_N.png,0,0,0,0,2,67,257,37,,,,,,,,,,,,,,,,,,,,,,,,,,,2023-04-07_19h36.32.320,FaceAttractiveness,2022.2.5,139.68450855709384,
treatment,0% Never,100% Always,images\ LCHEEK_CFD_LF_224_176_N.png,0,0,0,0,2,68,258,31,,,,,,,,,,,,,,,,,,,,,,,,,,,2023-04-07_19h36.32.320,FaceAttractiveness,2022.2.5,139.68450855709384,
treatment,0% Never,100% Always,images\ RCHEEK_035_M_F_N_A.png,0,0,0,0,2,69,259,77,,,,,,,,,,,,,,,,,,,,,,,,,,,2023-04-07_19h36.32.320,FaceAttractiveness,2022.2.5,139.68450855709384,
treatment,0% Never,100% Always,images\FOREHEAD_CFD_LM_203_026_N.png,0,0,0,0,2,70,260,14,,,,,,,,,,,,,,,,,,,,,,,,,,,2023-04-07_19h36.32.320,FaceAttractiveness,2022.2.5,139.68450855709384,
treatment,0% Never,100% Always,images\FOREHEAD_136_M_M_N_A.png,0,0,0,0,2,71,261,3,,,,,,,,,,,,,,,,,,,,,,,,,,,2023-04-07_19h36.32.320,FaceAttractiveness,2022.2.5,139.68450855709384,
treatment,0% Never,100% Always,"images\ LIP_CFD_AM_233_236_N.png
",0,0,0,0,2,72,262,45,,,,,,,,,,,,,,,,,,,,,,,,,,,2023-04-07_19h36.32.320,FaceAttractiveness,2022.2.5,139.68450855709384,
treatment,0% Never,100% Always,images\ RCHEEK_CFD_WF_200_099_N.png,0,0,0,0,2,73,263,92,,,,,,,,,,,,,,,,,,,,,,,,,,,2023-04-07_19h36.32.320,FaceAttractiveness,2022.2.5,139.68450855709384,
treatment,0% Never,100% Always,images\ LIP_035_M_F_N_A.png,0,0,0,0,2,74,264,39,,,,,,,,,,,,,,,,,,,,,,,,,,,2023-04-07_19h36.32.320,FaceAttractiveness,2022.2.5,139.68450855709384,
treatment,0% Never,100% Always,images\ LCHEEK_CFD_AF_245_143_N.png,0,0,0,0,2,75,265,25,,,,,,,,,,,,,,,,,,,,,,,,,,,2023-04-07_19h36.32.320,FaceAttractiveness,2022.2.5,139.68450855709384,
treatment,0% Never,100% Always,images\ LCHEEK_CFD_WF_250_167_N.png,0,0,0,0,2,76,266,36,,,,,,,,,,,,,,,,,,,,,,,,,,,2023-04-07_19h36.32.320,FaceAttractiveness,2022.2.5,139.68450855709384,
treatment,0% Never,100% Always,images\ NASALTIP_CFD_WF_250_167_N.png,0,0,0,0,2,77,267,74,,,,,,,,,,,,,,,,,,,,,,,,,,,2023-04-07_19h36.32.320,FaceAttractiveness,2022.2.5,139.68450855709384,
treatment,0% Never,100% Always,images\ LIP_CFD_WF_200_099_N.png,0,0,0,0,2,78,268,54,,,,,,,,,,,,,,,,,,,,,,,,,,,2023-04-07_19h36.32.320,FaceAttractiveness,2022.2.5,139.68450855709384,
treatment,0% Never,100% Always,images\FOREHEAD_CFD_BF_214_308_N.png,0,0,0,0,2,79,269,8,,,,,,,,,,,,,,,,,,,,,,,,,,,2023-04-07_19h36.32.320,FaceAttractiveness,2022.2.5,139.68450855709384,
treatment,0% Never,100% Always,images\ LCHEEK_CFD_BM_213_134_N.png,0,0,0,0,2,80,270,29,,,,,,,,,,,,,,,,,,,,,,,,,,,2023-04-07_19h36.32.320,FaceAttractiveness,2022.2.5,139.68450855709384,
treatment,0% Never,100% Always,images\ NASALTIP_CFD_WM_212_097_N.png,0,0,0,0,2,81,271,75,,,,,,,,,,,,,,,,,,,,,,,,,,,2023-04-07_19h36.32.320,FaceAttractiveness,2022.2.5,139.68450855709384,
treatment,0% Never,100% Always,images\FOREHEAD_CFD_AM_233_236_N.png,0,0,0,0,2,82,272,7,,,,,,,,,,,,,,,,,,,,,,,,,,,2023-04-07_19h36.32.320,FaceAttractiveness,2022.2.5,139.68450855709384,
treatment,0% Never,100% Always,images\ NASALTIP_087_M_M_N_A.png,0,0,0,0,2,83,273,59,,,,,,,,,,,,,,,,,,,,,,,,,,,2023-04-07_19h36.32.320,FaceAttractiveness,2022.2.5,139.68450855709384,
treatment,0% Never,100% Always,images\ RCHEEK_CFD_WM_212_097_N.png,0,0,0,0,2,84,274,94,,,,,,,,,,,,,,,,,,,,,,,,,,,2023-04-07_19h36.32.320,FaceAttractiveness,2022.2.5,139.68450855709384,
treatment,0% Never,100% Always,images\ LCHEEK_CFD_AF_237_223_N.png,0,0,0,0,2,85,275,24,,,,,,,,,,,,,,,,,,,,,,,,,,,2023-04-07_19h36.32.320,FaceAttractiveness,2022.2.5,139.68450855709384,
treatment,0% Never,100% Always,images\ RCHEEK_CFD_AF_231_357_N.png,0,0,0,0,2,86,276,80,,,,,,,,,,,,,,,,,,,,,,,,,,,2023-04-07_19h36.32.320,FaceAttractiveness,2022.2.5,139.68450855709384,
treatment,0% Never,100% Always,images\ NASALTIP_CFD_LM_203_026_N.png,0,0,0,0,2,87,277,71,,,,,,,,,,,,,,,,,,,,,,,,,,,2023-04-07_19h36.32.320,FaceAttractiveness,2022.2.5,139.68450855709384,
treatment,0% Never,100% Always,images\ LIP_CFD_WM_212_097_N.png,0,0,0,0,2,88,278,56,,,,,,,,,,,,,,,,,,,,,,,,,,,2023-04-07_19h36.32.320,FaceAttractiveness,2022.2.5,139.68450855709384,
treatment,0% Never,100% Always,images\ RCHEEK_087_M_M_N_A.png,0,0,0,0,2,89,279,78,,,,,,,,,,,,,,,,,,,,,,,,,,,2023-04-07_19h36.32.320,FaceAttractiveness,2022.2.5,139.68450855709384,
treatment,0% Never,100% Always,images\ LIP_CFD_LM_201_057_N.png,0,0,0,0,2,90,280,51,,,,,,,,,,,,,,,,,,,,,,,,,,,2023-04-07_19h36.32.320,FaceAttractiveness,2022.2.5,139.68450855709384,
treatment,0% Never,100% Always,images\ RCHEEK_CFD_BM_213_134_N.png,0,0,0,0,2,91,281,86,,,,,,,,,,,,,,,,,,,,,,,,,,,2023-04-07_19h36.32.320,FaceAttractiveness,2022.2.5,139.68450855709384,
treatment,0% Never,100% Always,images\ LIP_CFD_LM_203_026_N.png,0,0,0,0,2,92,282,52,,,,,,,,,,,,,,,,,,,,,,,,,,,2023-04-07_19h36.32.320,FaceAttractiveness,2022.2.5,139.68450855709384,
treatment,0% Never,100% Always,images\ LIP_CFD_BM_213_134_N.png,0,0,0,0,2,93,283,48,,,,,,,,,,,,,,,,,,,,,,,,,,,2023-04-07_19h36.32.320,FaceAttractiveness,2022.2.5,139.68450855709384,
treatment,0% Never,100% Always,"images\ LCHEEK_CFD_AM_233_236_N.png
",0,0,0,0,2,94,284,26,,,,,,,,,,,,,,,,,,,,,,,,,,,2023-04-07_19h36.32.320,FaceAttractiveness,2022.2.5,139.68450855709384,
treatment,0% Never,100% Always,"images\ RCHEEK_CFD_BM_234_172_N.png
",0,0,0,0,3,0,285,87,,,,,,,,,,,,,,,,,,,,,,,,,,,2023-04-07_19h36.32.320,FaceAttractiveness,2022.2.5,139.68450855709384,
treatment,0% Never,100% Always,images\ NASALTIP_087_M_M_N_A.png,0,0,0,0,3,1,286,59,,,,,,,,,,,,,,,,,,,,,,,,,,,2023-04-07_19h36.32.320,FaceAttractiveness,2022.2.5,139.68450855709384,
treatment,0% Never,100% Always,images\ NASALTIP_CFD_BF_214_308_N.png,0,0,0,0,3,2,287,65,,,,,,,,,,,,,,,,,,,,,,,,,,,2023-04-07_19h36.32.320,FaceAttractiveness,2022.2.5,139.68450855709384,
treatment,0% Never,100% Always,images\ RCHEEK_CFD_WM_212_097_N.png,0,0,0,0,3,3,288,94,,,,,,,,,,,,,,,,,,,,,,,,,,,2023-04-07_19h36.32.320,FaceAttractiveness,2022.2.5,139.68450855709384,
treatment,0% Never,100% Always,images\FOREHEAD_006_M_F_N_A.png,0,0,0,0,3,4,289,0,,,,,,,,,,,,,,,,,,,,,,,,,,,2023-04-07_19h36.32.320,FaceAttractiveness,2022.2.5,139.68450855709384,
treatment,0% Never,100% Always,images\ LIP_CFD_BM_213_134_N.png,0,0,0,0,3,5,290,48,,,,,,,,,,,,,,,,,,,,,,,,,,,2023-04-07_19h36.32.320,FaceAttractiveness,2022.2.5,139.68450855709384,
treatment,0% Never,100% Always,images\ LIP_087_M_M_N_A.png,0,0,0,0,3,6,291,40,,,,,,,,,,,,,,,,,,,,,,,,,,,2023-04-07_19h36.32.320,FaceAttractiveness,2022.2.5,139.68450855709384,
treatment,0% Never,100% Always,images\ RCHEEK_CFD_LF_224_176_N.png,0,0,0,0,3,7,292,88,,,,,,,,,,,,,,,,,,,,,,,,,,,2023-04-07_19h36.32.320,FaceAttractiveness,2022.2.5,139.68450855709384,
treatment,0% Never,100% Always,images\FOREHEAD_CFD_BF_224_002_N.png,0,0,0,0,3,8,293,9,,,,,,,,,,,,,,,,,,,,,,,,,,,2023-04-07_19h36.32.320,FaceAttractiveness,2022.2.5,139.68450855709384,
treatment,0% Never,100% Always,"images\ LCHEEK_136_M_M_N_A.png
",0,0,0,0,3,9,294,22,,,,,,,,,,,,,,,,,,,,,,,,,,,2023-04-07_19h36.32.320,FaceAttractiveness,2022.2.5,139.68450855709384,
treatment,0% Never,100% Always,images\ RCHEEK_CFD_AF_245_143_N.png,0,0,0,0,3,10,295,82,,,,,,,,,,,,,,,,,,,,,,,,,,,2023-04-07_19h36.32.320,FaceAttractiveness,2022.2.5,139.68450855709384,
treatment,0% Never,100% Always,images\FOREHEAD_CFD_WF_200_099_N.png,0,0,0,0,3,11,296,16,,,,,,,,,,,,,,,,,,,,,,,,,,,2023-04-07_19h36.32.320,FaceAttractiveness,2022.2.5,139.68450855709384,
treatment,0% Never,100% Always,images\ RCHEEK_035_M_F_N_A.png,0,0,0,0,3,12,297,77,,,,,,,,,,,,,,,,,,,,,,,,,,,2023-04-07_19h36.32.320,FaceAttractiveness,2022.2.5,139.68450855709384,
treatment,0% Never,100% Always,images\ LIP_CFD_LM_203_026_N.png,0,0,0,0,3,13,298,52,,,,,,,,,,,,,,,,,,,,,,,,,,,2023-04-07_19h36.32.320,FaceAttractiveness,2022.2.5,139.68450855709384,
treatment,0% Never,100% Always,images\ LIP_006_M_F_N_A.png,0,0,0,0,3,14,299,38,,,,,,,,,,,,,,,,,,,,,,,,,,,2023-04-07_19h36.32.320,FaceAttractiveness,2022.2.5,139.68450855709384,
treatment,0% Never,100% Always,"images\ LIP_CFD_AM_233_236_N.png
",0,0,0,0,3,15,300,45,,,,,,,,,,,,,,,,,,,,,,,,,,,2023-04-07_19h36.32.320,FaceAttractiveness,2022.2.5,139.68450855709384,
treatment,0% Never,100% Always,images\FOREHEAD_CFD_LF_224_176_N.png,0,0,0,0,3,16,301,12,,,,,,,,,,,,,,,,,,,,,,,,,,,2023-04-07_19h36.32.320,FaceAttractiveness,2022.2.5,139.68450855709384,
treatment,0% Never,100% Always,images\ LIP_CFD_LF_224_176_N.png,0,0,0,0,3,17,302,50,,,,,,,,,,,,,,,,,,,,,,,,,,,2023-04-07_19h36.32.320,FaceAttractiveness,2022.2.5,139.68450855709384,
treatment,0% Never,100% Always,images\ NASALTIP_CFD_BM_213_134_N.png,0,0,0,0,3,18,303,67,,,,,,,,,,,,,,,,,,,,,,,,,,,2023-04-07_19h36.32.320,FaceAttractiveness,2022.2.5,139.68450855709384,
treatment,0% Never,100% Always,images\ LIP_CFD_AF_237_223_N.png,0,0,0,0,3,19,304,43,,,,,,,,,,,,,,,,,,,,,,,,,,,2023-04-07_19h36.32.320,FaceAttractiveness,2022.2.5,139.68450855709384,
treatment,0% Never,100% Always,images\ RCHEEK_CFD_WF_200_099_N.png,0,0,0,0,3,20,305,92,,,,,,,,,,,,,,,,,,,,,,,,,,,2023-04-07_19h36.32.320,FaceAttractiveness,2022.2.5,139.68450855709384,
treatment,0% Never,100% Always,images\ LIP_CFD_WF_200_099_N.png,0,0,0,0,3,21,306,54,,,,,,,,,,,,,,,,,,,,,,,,,,,2023-04-07_19h36.32.320,FaceAttractiveness,2022.2.5,139.68450855709384,
treatment,0% Never,100% Always,images\ RCHEEK_CFD_AF_231_357_N.png,0,0,0,0,3,22,307,80,,,,,,,,,,,,,,,,,,,,,,,,,,,2023-04-07_19h36.32.320,FaceAttractiveness,2022.2.5,139.68450855709384,
treatment,0% Never,100% Always,images\FOREHEAD_CFD_AM_233_236_N.png,0,0,0,0,3,23,308,7,,,,,,,,,,,,,,,,,,,,,,,,,,,2023-04-07_19h36.32.320,FaceAttractiveness,2022.2.5,139.68450855709384,
treatment,0% Never,100% Always,images\ NASALTIP_CFD_LF_224_176_N.png,0,0,0,0,3,24,309,69,,,,,,,,,,,,,,,,,,,,,,,,,,,2023-04-07_19h36.32.320,FaceAttractiveness,2022.2.5,139.68450855709384,
treatment,0% Never,100% Always,images\FOREHEAD_CFD_AF_231_357_N.png,0,0,0,0,3,25,310,4,,,,,,,,,,,,,,,,,,,,,,,,,,,2023-04-07_19h36.32.320,FaceAttractiveness,2022.2.5,139.68450855709384,
treatment,0% Never,100% Always,images\ NASALTIP_CFD_WF_250_167_N.png,0,0,0,0,3,26,311,74,,,,,,,,,,,,,,,,,,,,,,,,,,,2023-04-07_19h36.32.320,FaceAttractiveness,2022.2.5,139.68450855709384,
treatment,0% Never,100% Always,images\ LCHEEK_CFD_LM_203_026_N.png,0,0,0,0,3,27,312,33,,,,,,,,,,,,,,,,,,,,,,,,,,,2023-04-07_19h36.32.320,FaceAttractiveness,2022.2.5,139.68450855709384,
treatment,0% Never,100% Always,images\FOREHEAD_CFD_AF_245_143_N.png,0,0,0,0,3,28,313,6,,,,,,,,,,,,,,,,,,,,,,,,,,,2023-04-07_19h36.32.320,FaceAttractiveness,2022.2.5,139.68450855709384,
treatment,0% Never,100% Always,images\ LCHEEK_CFD_BF_224_002_N.png,0,0,0,0,3,29,314,28,,,,,,,,,,,,,,,,,,,,,,,,,,,2023-04-07_19h36.32.320,FaceAttractiveness,2022.2.5,139.68450855709384,
treatment,0% Never,100% Always,images\ LIP_CFD_AF_245_143_N.png,0,0,0,0,3,30,315,44,,,,,,,,,,,,,,,,,,,,,,,,,,,2023-04-07_19h36.32.320,FaceAttractiveness,2022.2.5,139.68450855709384,
treatment,0% Never,100% Always,images\ LCHEEK_CFD_BM_213_134_N.png,0,0,0,0,3,31,316,29,,,,,,,,,,,,,,,,,,,,,,,,,,,2023-04-07_19h36.32.320,FaceAttractiveness,2022.2.5,139.68450855709384,
treatment,0% Never,100% Always,images\ NASALTIP_CFD_AF_237_223_N.png,0,0,0,0,3,32,317,62,,,,,,,,,,,,,,,,,,,,,,,,,,,2023-04-07_19h36.32.320,FaceAttractiveness,2022.2.5,139.68450855709384,
treatment,0% Never,100% Always,"images\ LIP_136_M_M_N_A.png
",0,0,0,0,3,33,318,41,,,,,,,,,,,,,,,,,,,,,,,,,,,2023-04-07_19h36.32.320,FaceAttractiveness,2022.2.5,139.68450855709384,
treatment,0% Never,100% Always,images\ NASALTIP_CFD_BF_224_002_N.png,0,0,0,0,3,34,319,66,,,,,,,,,,,,,,,,,,,,,,,,,,,2023-04-07_19h36.32.320,FaceAttractiveness,2022.2.5,139.68450855709384,
treatment,0% Never,100% Always,"images\ LIP_CFD_BM_234_172_N.png
",0,0,0,0,3,35,320,49,,,,,,,,,,,,,,,,,,,,,,,,,,,2023-04-07_19h36.32.320,FaceAttractiveness,2022.2.5,139.68450855709384,
treatment,0% Never,100% Always,images\ LCHEEK_CFD_WM_212_097_N.png,0,0,0,0,3,36,321,37,,,,,,,,,,,,,,,,,,,,,,,,,,,2023-04-07_19h36.32.320,FaceAttractiveness,2022.2.5,139.68450855709384,
treatment,0% Never,100% Always,images\ RCHEEK_CFD_BF_224_002_N.png,0,0,0,0,3,37,322,85,,,,,,,,,,,,,,,,,,,,,,,,,,,2023-04-07_19h36.32.320,FaceAttractiveness,2022.2.5,139.68450855709384,
treatment,0% Never,100% Always,images\ LCHEEK_CFD_AF_245_143_N.png,0,0,0,0,3,38,323,25,,,,,,,,,,,,,,,,,,,,,,,,,,,2023-04-07_19h36.32.320,FaceAttractiveness,2022.2.5,139.68450855709384,
treatment,0% Never,100% Always,images\ LCHEEK_035_M_F_N_A.png,0,0,0,0,3,39,324,20,,,,,,,,,,,,,,,,,,,,,,,,,,,2023-04-07_19h36.32.320,FaceAttractiveness,2022.2.5,139.68450855709384,
treatment,0% Never,100% Always,images\ LCHEEK_CFD_AF_237_223_N.png,0,0,0,0,3,40,325,24,,,,,,,,,,,,,,,,,,,,,,,,,,,2023-04-07_19h36.32.320,FaceAttractiveness,2022.2.5,139.68450855709384,
treatment,0% Never,100% Always,images\ LIP_CFD_WM_212_097_N.png,0,0,0,0,3,41,326,56,,,,,,,,,,,,,,,,,,,,,,,,,,,2023-04-07_19h36.32.320,FaceAttractiveness,2022.2.5,139.68450855709384,
treatment,0% Never,100% Always,images\ LCHEEK_087_M_M_N_A.png,0,0,0,0,3,42,327,21,,,,,,,,,,,,,,,,,,,,,,,,,,,2023-04-07_19h36.32.320,FaceAttractiveness,2022.2.5,139.68450855709384,
treatment,0% Never,100% Always,images\ RCHEEK_CFD_LM_201_057_N.png,0,0,0,0,3,43,328,89,,,,,,,,,,,,,,,,,,,,,,,,,,,2023-04-07_19h36.32.320,FaceAttractiveness,2022.2.5,139.68450855709384,
treatment,0% Never,100% Always,images\ LIP_CFD_AF_231_357_N.png,0,0,0,0,3,44,329,42,,,,,,,,,,,,,,,,,,,,,,,,,,,2023-04-07_19h36.32.320,FaceAttractiveness,2022.2.5,139.68450855709384,
treatment,0% Never,100% Always,"images\ LCHEEK_CFD_WF_002_004_N.png
",0,0,0,0,3,45,330,34,,,,,,,,,,,,,,,,,,,,,,,,,,,2023-04-07_19h36.32.320,FaceAttractiveness,2022.2.5,139.68450855709384,
treatment,0% Never,100% Always,images\ LCHEEK_CFD_AF_231_357_N.png,0,0,0,0,3,46,331,23,,,,,,,,,,,,,,,,,,,,,,,,,,,2023-04-07_19h36.32.320,FaceAttractiveness,2022.2.5,139.68450855709384,
treatment,0% Never,100% Always,images\ RCHEEK_CFD_BM_213_134_N.png,0,0,0,0,3,47,332,86,,,,,,,,,,,,,,,,,,,,,,,,,,,2023-04-07_19h36.32.320,FaceAttractiveness,2022.2.5,139.68450855709384,
treatment,0% Never,100% Always,images\ RCHEEK_CFD_LM_203_026_N.png,0,0,0,0,3,48,333,90,,,,,,,,,,,,,,,,,,,,,,,,,,,2023-04-07_19h36.32.320,FaceAttractiveness,2022.2.5,139.68450855709384,
treatment,0% Never,100% Always,images\ NASALTIP_CFD_LM_201_057_N.png,0,0,0,0,3,49,334,70,,,,,,,,,,,,,,,,,,,,,,,,,,,2023-04-07_19h36.32.320,FaceAttractiveness,2022.2.5,139.68450855709384,
treatment,0% Never,100% Always,images\ RCHEEK_087_M_M_N_A.png,0,0,0,0,3,50,335,78,,,,,,,,,,,,,,,,,,,,,,,,,,,2023-04-07_19h36.32.320,FaceAttractiveness,2022.2.5,139.68450855709384,
treatment,0% Never,100% Always,images\ LCHEEK_006_M_F_N_A.png,0,0,0,0,3,51,336,19,,,,,,,,,,,,,,,,,,,,,,,,,,,2023-04-07_19h36.32.320,FaceAttractiveness,2022.2.5,139.68450855709384,
treatment,0% Never,100% Always,images\FOREHEAD_CFD_WF_250_167_N.png,0,0,0,0,3,52,337,17,,,,,,,,,,,,,,,,,,,,,,,,,,,2023-04-07_19h36.32.320,FaceAttractiveness,2022.2.5,139.68450855709384,
treatment,0% Never,100% Always,images\FOREHEAD_CFD_BM_213_134_N.png,0,0,0,0,3,53,338,10,,,,,,,,,,,,,,,,,,,,,,,,,,,2023-04-07_19h36.32.320,FaceAttractiveness,2022.2.5,139.68450855709384,
treatment,0% Never,100% Always,images\FOREHEAD_136_M_M_N_A.png,0,0,0,0,3,54,339,3,,,,,,,,,,,,,,,,,,,,,,,,,,,2023-04-07_19h36.32.320,FaceAttractiveness,2022.2.5,139.68450855709384,
treatment,0% Never,100% Always,"images\ RCHEEK_136_M_M_N_A.png
",0,0,0,0,3,55,340,79,,,,,,,,,,,,,,,,,,,,,,,,,,,2023-04-07_19h36.32.320,FaceAttractiveness,2022.2.5,139.68450855709384,
treatment,0% Never,100% Always,"images\ NASALTIP_136_M_M_N_A.png
",0,0,0,0,3,56,341,60,,,,,,,,,,,,,,,,,,,,,,,,,,,2023-04-07_19h36.32.320,FaceAttractiveness,2022.2.5,139.68450855709384,
treatment,0% Never,100% Always,"images\ RCHEEK_CFD_AM_233_236_N.png
",0,0,0,0,3,57,342,83,,,,,,,,,,,,,,,,,,,,,,,,,,,2023-04-07_19h36.32.320,FaceAttractiveness,2022.2.5,139.68450855709384,
treatment,0% Never,100% Always,images\FOREHEAD_035_M_F_N_A.png,0,0,0,0,3,58,343,1,,,,,,,,,,,,,,,,,,,,,,,,,,,2023-04-07_19h36.32.320,FaceAttractiveness,2022.2.5,139.68450855709384,
treatment,0% Never,100% Always,"images\ LCHEEK_CFD_AM_233_236_N.png
",0,0,0,0,3,59,344,26,,,,,,,,,,,,,,,,,,,,,,,,,,,2023-04-07_19h36.32.320,FaceAttractiveness,2022.2.5,139.68450855709384,
treatment,0% Never,100% Always,images\ NASALTIP_CFD_WF_200_099_N.png,0,0,0,0,3,60,345,73,,,,,,,,,,,,,,,,,,,,,,,,,,,2023-04-07_19h36.32.320,FaceAttractiveness,2022.2.5,139.68450855709384,
treatment,0% Never,100% Always,images\ NASALTIP_006_M_F_N_A.png,0,0,0,0,3,61,346,57,,,,,,,,,,,,,,,,,,,,,,,,,,,2023-04-07_19h36.32.320,FaceAttractiveness,2022.2.5,139.68450855709384,
treatment,0% Never,100% Always,"images\ NASALTIP_CFD_BM_234_172_N.png
",0,0,0,0,3,62,347,68,,,,,,,,,,,,,,,,,,,,,,,,,,,2023-04-07_19h36.32.320,FaceAttractiveness,2022.2.5,139.68450855709384,
treatment,0% Never,100% Always,images\ LIP_CFD_BF_214_308_N.png,0,0,0,0,3,63,348,46,,,,,,,,,,,,,,,,,,,,,,,,,,,2023-04-07_19h36.32.320,FaceAttractiveness,2022.2.5,139.68450855709384,
treatment,0% Never,100% Always,"images\ RCHEEK_CFD_WF_002_004_N.png
",0,0,0,0,3,64,349,91,,,,,,,,,,,,,,,,,,,,,,,,,,,2023-04-07_19h36.32.320,FaceAttractiveness,2022.2.5,139.68450855709384,
treatment,0% Never,100% Always,"images\ LCHEEK_CFD_BM_234_172_N.png
",0,0,0,0,3,65,350,30,,,,,,,,,,,,,,,,,,,,,,,,,,,2023-04-07_19h36.32.320,FaceAttractiveness,2022.2.5,139.68450855709384,
treatment,0% Never,100% Always,"images\ NASALTIP_CFD_WF_002_004_N.png
",0,0,0,0,3,66,351,72,,,,,,,,,,,,,,,,,,,,,,,,,,,2023-04-07_19h36.32.320,FaceAttractiveness,2022.2.5,139.68450855709384,
treatment,0% Never,100% Always,images\ LCHEEK_CFD_BF_214_308_N.png,0,0,0,0,3,67,352,27,,,,,,,,,,,,,,,,,,,,,,,,,,,2023-04-07_19h36.32.320,FaceAttractiveness,2022.2.5,139.68450855709384,
treatment,0% Never,100% Always,images\ RCHEEK_006_M_F_N_A.png,0,0,0,0,3,68,353,76,,,,,,,,,,,,,,,,,,,,,,,,,,,2023-04-07_19h36.32.320,FaceAttractiveness,2022.2.5,139.68450855709384,
treatment,0% Never,100% Always,images\FOREHEAD_CFD_WF_002_004_N.png,0,0,0,0,3,69,354,15,,,,,,,,,,,,,,,,,,,,,,,,,,,2023-04-07_19h36.32.320,FaceAttractiveness,2022.2.5,139.68450855709384,
treatment,0% Never,100% Always,images\ LCHEEK_CFD_LF_224_176_N.png,0,0,0,0,3,70,355,31,,,,,,,,,,,,,,,,,,,,,,,,,,,2023-04-07_19h36.32.320,FaceAttractiveness,2022.2.5,139.68450855709384,
treatment,0% Never,100% Always,images\ LCHEEK_CFD_LM_201_057_N.png,0,0,0,0,3,71,356,32,,,,,,,,,,,,,,,,,,,,,,,,,,,2023-04-07_19h36.32.320,FaceAttractiveness,2022.2.5,139.68450855709384,
treatment,0% Never,100% Always,images\ NASALTIP_CFD_AF_231_357_N.png,0,0,0,0,3,72,357,61,,,,,,,,,,,,,,,,,,,,,,,,,,,2023-04-07_19h36.32.320,FaceAttractiveness,2022.2.5,139.68450855709384,
treatment,0% Never,100% Always,images\ RCHEEK_CFD_AF_237_223_N.png,0,0,0,0,3,73,358,81,,,,,,,,,,,,,,,,,,,,,,,,,,,2023-04-07_19h36.32.320,FaceAttractiveness,2022.2.5,139.68450855709384,
treatment,0% Never,100% Always,images\ NASALTIP_CFD_WM_212_097_N.png,0,0,0,0,3,74,359,75,,,,,,,,,,,,,,,,,,,,,,,,,,,2023-04-07_19h36.32.320,FaceAttractiveness,2022.2.5,139.68450855709384,
treatment,0% Never,100% Always,images\ LIP_035_M_F_N_A.png,0,0,0,0,3,75,360,39,,,,,,,,,,,,,,,,,,,,,,,,,,,2023-04-07_19h36.32.320,FaceAttractiveness,2022.2.5,139.68450855709384,
treatment,0% Never,100% Always,images\ LCHEEK_CFD_WF_250_167_N.png,0,0,0,0,3,76,361,36,,,,,,,,,,,,,,,,,,,,,,,,,,,2023-04-07_19h36.32.320,FaceAttractiveness,2022.2.5,139.68450855709384,
treatment,0% Never,100% Always,images\ LIP_CFD_LM_201_057_N.png,0,0,0,0,3,77,362,51,,,,,,,,,,,,,,,,,,,,,,,,,,,2023-04-07_19h36.32.320,FaceAttractiveness,2022.2.5,139.68450855709384,
treatment,0% Never,100% Always,images\FOREHEAD_CFD_BM_234_172_N.png,0,0,0,0,3,78,363,11,,,,,,,,,,,,,,,,,,,,,,,,,,,2023-04-07_19h36.32.320,FaceAttractiveness,2022.2.5,139.68450855709384,
treatment,0% Never,100% Always,images\ LIP_CFD_BF_224_002_N.png,0,0,0,0,3,79,364,47,,,,,,,,,,,,,,,,,,,,,,,,,,,2023-04-07_19h36.32.320,FaceAttractiveness,2022.2.5,139.68450855709384,
treatment,0% Never,100% Always,"images\ NASALTIP_CFD_AM_233_236_N.png
",0,0,0,0,3,80,365,64,,,,,,,,,,,,,,,,,,,,,,,,,,,2023-04-07_19h36.32.320,FaceAttractiveness,2022.2.5,139.68450855709384,
treatment,0% Never,100% Always,images\ LCHEEK_CFD_WF_200_099_N.png,0,0,0,0,3,81,366,35,,,,,,,,,,,,,,,,,,,,,,,,,,,2023-04-07_19h36.32.320,FaceAttractiveness,2022.2.5,139.68450855709384,
treatment,0% Never,100% Always,images\ LIP_CFD_WF_250_167_N.png,0,0,0,0,3,82,367,55,,,,,,,,,,,,,,,,,,,,,,,,,,,2023-04-07_19h36.32.320,FaceAttractiveness,2022.2.5,139.68450855709384,
treatment,0% Never,100% Always,images\ RCHEEK_CFD_WF_250_167_N.png,0,0,0,0,3,83,368,93,,,,,,,,,,,,,,,,,,,,,,,,,,,2023-04-07_19h36.32.320,FaceAttractiveness,2022.2.5,139.68450855709384,
treatment,0% Never,100% Always,images\FOREHEAD_CFD_LM_201_057_N.png,0,0,0,0,3,84,369,13,,,,,,,,,,,,,,,,,,,,,,,,,,,2023-04-07_19h36.32.320,FaceAttractiveness,2022.2.5,139.68450855709384,
treatment,0% Never,100% Always,images\FOREHEAD_CFD_BF_214_308_N.png,0,0,0,0,3,85,370,8,,,,,,,,,,,,,,,,,,,,,,,,,,,2023-04-07_19h36.32.320,FaceAttractiveness,2022.2.5,139.68450855709384,
treatment,0% Never,100% Always,images\FOREHEAD_CFD_LM_203_026_N.png,0,0,0,0,3,86,371,14,,,,,,,,,,,,,,,,,,,,,,,,,,,2023-04-07_19h36.32.320,FaceAttractiveness,2022.2.5,139.68450855709384,
treatment,0% Never,100% Always,images\ NASALTIP_035_M_F_N_A.png,0,0,0,0,3,87,372,58,,,,,,,,,,,,,,,,,,,,,,,,,,,2023-04-07_19h36.32.320,FaceAttractiveness,2022.2.5,139.68450855709384,
treatment,0% Never,100% Always,"images\ LIP_CFD_WF_002_004_N.png
",0,0,0,0,3,88,373,53,,,,,,,,,,,,,,,,,,,,,,,,,,,2023-04-07_19h36.32.320,FaceAttractiveness,2022.2.5,139.68450855709384,
treatment,0% Never,100% Always,images\FOREHEAD_087_M_M_N_A.png,0,0,0,0,3,89,374,2,,,,,,,,,,,,,,,,,,,,,,,,,,,2023-04-07_19h36.32.320,FaceAttractiveness,2022.2.5,139.68450855709384,
treatment,0% Never,100% Always,images\FOREHEAD_CFD_AF_237_223_N.png,0,0,0,0,3,90,375,5,,,,,,,,,,,,,,,,,,,,,,,,,,,2023-04-07_19h36.32.320,FaceAttractiveness,2022.2.5,139.68450855709384,
treatment,0% Never,100% Always,images\FOREHEAD_CFD_WM_212_097_N.png,0,0,0,0,3,91,376,18,,,,,,,,,,,,,,,,,,,,,,,,,,,2023-04-07_19h36.32.320,FaceAttractiveness,2022.2.5,139.68450855709384,
treatment,0% Never,100% Always,images\ NASALTIP_CFD_LM_203_026_N.png,0,0,0,0,3,92,377,71,,,,,,,,,,,,,,,,,,,,,,,,,,,2023-04-07_19h36.32.320,FaceAttractiveness,2022.2.5,139.68450855709384,
treatment,0% Never,100% Always,images\ RCHEEK_CFD_BF_214_308_N.png,0,0,0,0,3,93,378,84,,,,,,,,,,,,,,,,,,,,,,,,,,,2023-04-07_19h36.32.320,FaceAttractiveness,2022.2.5,139.68450855709384,
treatment,0% Never,100% Always,images\ NASALTIP_CFD_AF_245_143_N.png,0,0,0,0,3,94,379,63,,,,,,,,,,,,,,,,,,,,,,,,,,,2023-04-07_19h36.32.320,FaceAttractiveness,2022.2.5,139.68450855709384,
treatment,0% Never,100% Always,images\ NASALTIP_CFD_AF_237_223_N.png,0,0,0,0,4,0,380,62,,,,,,,,,,,,,,,,,,,,,,,,,,,2023-04-07_19h36.32.320,FaceAttractiveness,2022.2.5,139.68450855709384,
treatment,0% Never,100% Always,images\FOREHEAD_CFD_LF_224_176_N.png,0,0,0,0,4,1,381,12,,,,,,,,,,,,,,,,,,,,,,,,,,,2023-04-07_19h36.32.320,FaceAttractiveness,2022.2.5,139.68450855709384,
treatment,0% Never,100% Always,"images\ RCHEEK_136_M_M_N_A.png
",0,0,0,0,4,2,382,79,,,,,,,,,,,,,,,,,,,,,,,,,,,2023-04-07_19h36.32.320,FaceAttractiveness,2022.2.5,139.68450855709384,
treatment,0% Never,100% Always,images\FOREHEAD_136_M_M_N_A.png,0,0,0,0,4,3,383,3,,,,,,,,,,,,,,,,,,,,,,,,,,,2023-04-07_19h36.32.320,FaceAttractiveness,2022.2.5,139.68450855709384,
treatment,0% Never,100% Always,images\FOREHEAD_CFD_AF_237_223_N.png,0,0,0,0,4,4,384,5,,,,,,,,,,,,,,,,,,,,,,,,,,,2023-04-07_19h36.32.320,FaceAttractiveness,2022.2.5,139.68450855709384,
treatment,0% Never,100% Always,images\ RCHEEK_CFD_LM_203_026_N.png,0,0,0,0,4,5,385,90,,,,,,,,,,,,,,,,,,,,,,,,,,,2023-04-07_19h36.32.320,FaceAttractiveness,2022.2.5,139.68450855709384,
treatment,0% Never,100% Always,images\ LIP_CFD_LF_224_176_N.png,0,0,0,0,4,6,386,50,,,,,,,,,,,,,,,,,,,,,,,,,,,2023-04-07_19h36.32.320,FaceAttractiveness,2022.2.5,139.68450855709384,
treatment,0% Never,100% Always,images\ LIP_CFD_AF_245_143_N.png,0,0,0,0,4,7,387,44,,,,,,,,,,,,,,,,,,,,,,,,,,,2023-04-07_19h36.32.320,FaceAttractiveness,2022.2.5,139.68450855709384,
treatment,0% Never,100% Always,images\ LIP_CFD_BM_213_134_N.png,0,0,0,0,4,8,388,48,,,,,,,,,,,,,,,,,,,,,,,,,,,2023-04-07_19h36.32.320,FaceAttractiveness,2022.2.5,139.68450855709384,
treatment,0% Never,100% Always,images\FOREHEAD_CFD_AM_233_236_N.png,0,0,0,0,4,9,389,7,,,,,,,,,,,,,,,,,,,,,,,,,,,2023-04-07_19h36.32.320,FaceAttractiveness,2022.2.5,139.68450855709384,
treatment,0% Never,100% Always,images\FOREHEAD_CFD_BF_214_308_N.png,0,0,0,0,4,10,390,8,,,,,,,,,,,,,,,,,,,,,,,,,,,2023-04-07_19h36.32.320,FaceAttractiveness,2022.2.5,139.68450855709384,
treatment,0% Never,100% Always,"images\ NASALTIP_CFD_WF_002_004_N.png
",0,0,0,0,4,11,391,72,,,,,,,,,,,,,,,,,,,,,,,,,,,2023-04-07_19h36.32.320,FaceAttractiveness,2022.2.5,139.68450855709384,
treatment,0% Never,100% Always,images\FOREHEAD_CFD_WF_250_167_N.png,0,0,0,0,4,12,392,17,,,,,,,,,,,,,,,,,,,,,,,,,,,2023-04-07_19h36.32.320,FaceAttractiveness,2022.2.5,139.68450855709384,
treatment,0% Never,100% Always,"images\ RCHEEK_CFD_AM_233_236_N.png
",0,0,0,0,4,13,393,83,,,,,,,,,,,,,,,,,,,,,,,,,,,2023-04-07_19h36.32.320,FaceAttractiveness,2022.2.5,139.68450855709384,
treatment,0% Never,100% Always,images\FOREHEAD_087_M_M_N_A.png,0,0,0,0,4,14,394,2,,,,,,,,,,,,,,,,,,,,,,,,,,,2023-04-07_19h36.32.320,FaceAttractiveness,2022.2.5,139.68450855709384,
treatment,0% Never,100% Always,images\ NASALTIP_CFD_WM_212_097_N.png,0,0,0,0,4,15,395,75,,,,,,,,,,,,,,,,,,,,,,,,,,,2023-04-07_19h36.32.320,FaceAttractiveness,2022.2.5,139.68450855709384,
treatment,0% Never,100% Always,images\ RCHEEK_CFD_BM_213_134_N.png,0,0,0,0,4,16,396,86,,,,,,,,,,,,,,,,,,,,,,,,,,,2023-04-07_19h36.32.320,FaceAttractiveness,2022.2.5,139.68450855709384,
treatment,0% Never,100% Always,images\ RCHEEK_CFD_LM_201_057_N.png,0,0,0,0,4,17,397,89,,,,,,,,,,,,,,,,,,,,,,,,,,,2023-04-07_19h36.32.320,FaceAttractiveness,2022.2.5,139.68450855709384,
treatment,0% Never,100% Always,images\ LCHEEK_CFD_AF_237_223_N.png,0,0,0,0,4,18,398,24,,,,,,,,,,,,,,,,,,,,,,,,,,,2023-04-07_19h36.32.320,FaceAttractiveness,2022.2.5,139.68450855709384,
treatment,0% Never,100% Always,"images\ LIP_CFD_WF_002_004_N.png
",0,0,0,0,4,19,399,53,,,,,,,,,,,,,,,,,,,,,,,,,,,2023-04-07_19h36.32.320,FaceAttractiveness,2022.2.5,139.68450855709384,
treatment,0% Never,100% Always,images\ LCHEEK_CFD_LM_201_057_N.png,0,0,0,0,4,20,400,32,,,,,,,,,,,,,,,,,,,,,,,,,,,2023-04-07_19h36.32.320,FaceAttractiveness,2022.2.5,139.68450855709384,
treatment,0% Never,100% Always,"images\ LIP_CFD_BM_234_172_N.png
",0,0,0,0,4,21,401,49,,,,,,,,,,,,,,,,,,,,,,,,,,,2023-04-07_19h36.32.320,FaceAttractiveness,2022.2.5,139.68450855709384,
treatment,0% Never,100% Always,images\ LCHEEK_CFD_WM_212_097_N.png,0,0,0,0,4,22,402,37,,,,,,,,,,,,,,,,,,,,,,,,,,,2023-04-07_19h36.32.320,FaceAttractiveness,2022.2.5,139.68450855709384,
treatment,0% Never,100% Always,images\ RCHEEK_CFD_AF_245_143_N.png,0,0,0,0,4,23,403,82,,,,,,,,,,,,,,,,,,,,,,,,,,,2023-04-07_19h36.32.320,FaceAttractiveness,2022.2.5,139.68450855709384,
treatment,0% Never,100% Always,"images\ LCHEEK_CFD_WF_002_004_N.png
",0,0,0,0,4,24,404,34,,,,,,,,,,,,,,,,,,,,,,,,,,,2023-04-07_19h36.32.320,FaceAttractiveness,2022.2.5,139.68450855709384,
treatment,0% Never,100% Always,images\ LIP_035_M_F_N_A.png,0,0,0,0,4,25,405,39,,,,,,,,,,,,,,,,,,,,,,,,,,,2023-04-07_19h36.32.320,FaceAttractiveness,2022.2.5,139.68450855709384,
treatment,0% Never,100% Always,images\ LIP_CFD_WF_250_167_N.png,0,0,0,0,4,26,406,55,,,,,,,,,,,,,,,,,,,,,,,,,,,2023-04-07_19h36.32.320,FaceAttractiveness,2022.2.5,139.68450855709384,
treatment,0% Never,100% Always,images\ RCHEEK_CFD_WM_212_097_N.png,0,0,0,0,4,27,407,94,,,,,,,,,,,,,,,,,,,,,,,,,,,2023-04-07_19h36.32.320,FaceAttractiveness,2022.2.5,139.68450855709384,
treatment,0% Never,100% Always,"images\ RCHEEK_CFD_WF_002_004_N.png
",0,0,0,0,4,28,408,91,,,,,,,,,,,,,,,,,,,,,,,,,,,2023-04-07_19h36.32.320,FaceAttractiveness,2022.2.5,139.68450855709384,
treatment,0% Never,100% Always,"images\ NASALTIP_CFD_AM_233_236_N.png
",0,0,0,0,4,29,409,64,,,,,,,,,,,,,,,,,,,,,,,,,,,2023-04-07_19h36.32.320,FaceAttractiveness,2022.2.5,139.68450855709384,
treatment,0% Never,100% Always,images\ LCHEEK_CFD_WF_250_167_N.png,0,0,0,0,4,30,410,36,,,,,,,,,,,,,,,,,,,,,,,,,,,2023-04-07_19h36.32.320,FaceAttractiveness,2022.2.5,139.68450855709384,
treatment,0% Never,100% Always,images\ LIP_CFD_LM_203_026_N.png,0,0,0,0,4,31,411,52,,,,,,,,,,,,,,,,,,,,,,,,,,,2023-04-07_19h36.32.320,FaceAttractiveness,2022.2.5,139.68450855709384,
treatment,0% Never,100% Always,"images\ LCHEEK_CFD_BM_234_172_N.png
",0,0,0,0,4,32,412,30,,,,,,,,,,,,,,,,,,,,,,,,,,,2023-04-07_19h36.32.320,FaceAttractiveness,2022.2.5,139.68450855709384,
treatment,0% Never,100% Always,"images\ RCHEEK_CFD_BM_234_172_N.png
",0,0,0,0,4,33,413,87,,,,,,,,,,,,,,,,,,,,,,,,,,,2023-04-07_19h36.32.320,FaceAttractiveness,2022.2.5,139.68450855709384,
treatment,0% Never,100% Always,images\ LIP_CFD_AF_231_357_N.png,0,0,0,0,4,34,414,42,,,,,,,,,,,,,,,,,,,,,,,,,,,2023-04-07_19h36.32.320,FaceAttractiveness,2022.2.5,139.68450855709384,
treatment,0% Never,100% Always,"images\ LIP_136_M_M_N_A.png
",0,0,0,0,4,35,415,41,,,,,,,,,,,,,,,,,,,,,,,,,,,2023-04-07_19h36.32.320,FaceAttractiveness,2022.2.5,139.68450855709384,
treatment,0% Never,100% Always,images\ NASALTIP_CFD_AF_231_357_N.png,0,0,0,0,4,36,416,61,,,,,,,,,,,,,,,,,,,,,,,,,,,2023-04-07_19h36.32.320,FaceAttractiveness,2022.2.5,139.68450855709384,
treatment,0% Never,100% Always,images\ NASALTIP_CFD_BM_213_134_N.png,0,0,0,0,4,37,417,67,,,,,,,,,,,,,,,,,,,,,,,,,,,2023-04-07_19h36.32.320,FaceAttractiveness,2022.2.5,139.68450855709384,
treatment,0% Never,100% Always,images\ RCHEEK_CFD_WF_200_099_N.png,0,0,0,0,4,38,418,92,,,,,,,,,,,,,,,,,,,,,,,,,,,2023-04-07_19h36.32.320,FaceAttractiveness,2022.2.5,139.68450855709384,
treatment,0% Never,100% Always,images\ LIP_CFD_BF_224_002_N.png,0,0,0,0,4,39,419,47,,,,,,,,,,,,,,,,,,,,,,,,,,,2023-04-07_19h36.32.320,FaceAttractiveness,2022.2.5,139.68450855709384,
treatment,0% Never,100% Always,images\FOREHEAD_035_M_F_N_A.png,0,0,0,0,4,40,420,1,,,,,,,,,,,,,,,,,,,,,,,,,,,2023-04-07_19h36.32.320,FaceAttractiveness,2022.2.5,139.68450855709384,
treatment,0% Never,100% Always,images\ NASALTIP_035_M_F_N_A.png,0,0,0,0,4,41,421,58,,,,,,,,,,,,,,,,,,,,,,,,,,,2023-04-07_19h36.32.320,FaceAttractiveness,2022.2.5,139.68450855709384,
treatment,0% Never,100% Always,"images\ LCHEEK_136_M_M_N_A.png
",0,0,0,0,4,42,422,22,,,,,,,,,,,,,,,,,,,,,,,,,,,2023-04-07_19h36.32.320,FaceAttractiveness,2022.2.5,139.68450855709384,
treatment,0% Never,100% Always,"images\ LIP_CFD_AM_233_236_N.png
",0,0,0,0,4,43,423,45,,,,,,,,,,,,,,,,,,,,,,,,,,,2023-04-07_19h36.32.320,FaceAttractiveness,2022.2.5,139.68450855709384,
treatment,0% Never,100% Always,images\FOREHEAD_CFD_WF_002_004_N.png,0,0,0,0,4,44,424,15,,,,,,,,,,,,,,,,,,,,,,,,,,,2023-04-07_19h36.32.320,FaceAttractiveness,2022.2.5,139.68450855709384,
treatment,0% Never,100% Always,images\FOREHEAD_CFD_AF_231_357_N.png,0,0,0,0,4,45,425,4,,,,,,,,,,,,,,,,,,,,,,,,,,,2023-04-07_19h36.32.320,FaceAttractiveness,2022.2.5,139.68450855709384,
treatment,0% Never,100% Always,"images\ NASALTIP_136_M_M_N_A.png
",0,0,0,0,4,46,426,60,,,,,,,,,,,,,,,,,,,,,,,,,,,2023-04-07_19h36.32.320,FaceAttractiveness,2022.2.5,139.68450855709384,
treatment,0% Never,100% Always,images\ RCHEEK_CFD_AF_237_223_N.png,0,0,0,0,4,47,427,81,,,,,,,,,,,,,,,,,,,,,,,,,,,2023-04-07_19h36.32.320,FaceAttractiveness,2022.2.5,139.68450855709384,
treatment,0% Never,100% Always,images\ LCHEEK_035_M_F_N_A.png,0,0,0,0,4,48,428,20,,,,,,,,,,,,,,,,,,,,,,,,,,,2023-04-07_19h36.32.320,FaceAttractiveness,2022.2.5,139.68450855709384,
treatment,0% Never,100% Always,images\ NASALTIP_CFD_BF_214_308_N.png,0,0,0,0,4,49,429,65,,,,,,,,,,,,,,,,,,,,,,,,,,,2023-04-07_19h36.32.320,FaceAttractiveness,2022.2.5,139.68450855709384,
treatment,0% Never,100% Always,images\ LIP_CFD_WF_200_099_N.png,0,0,0,0,4,50,430,54,,,,,,,,,,,,,,,,,,,,,,,,,,,2023-04-07_19h36.32.320,FaceAttractiveness,2022.2.5,139.68450855709384,
treatment,0% Never,100% Always,images\ LCHEEK_CFD_WF_200_099_N.png,0,0,0,0,4,51,431,35,,,,,,,,,,,,,,,,,,,,,,,,,,,2023-04-07_19h36.32.320,FaceAttractiveness,2022.2.5,139.68450855709384,
treatment,0% Never,100% Always,images\FOREHEAD_CFD_BM_234_172_N.png,0,0,0,0,4,52,432,11,,,,,,,,,,,,,,,,,,,,,,,,,,,2023-04-07_19h36.32.320,FaceAttractiveness,2022.2.5,139.68450855709384,
treatment,0% Never,100% Always,images\ LIP_087_M_M_N_A.png,0,0,0,0,4,53,433,40,,,,,,,,,,,,,,,,,,,,,,,,,,,2023-04-07_19h36.32.320,FaceAttractiveness,2022.2.5,139.68450855709384,
treatment,0% Never,100% Always,images\ LCHEEK_CFD_AF_231_357_N.png,0,0,0,0,4,54,434,23,,,,,,,,,,,,,,,,,,,,,,,,,,,2023-04-07_19h36.32.320,FaceAttractiveness,2022.2.5,139.68450855709384,
treatment,0% Never,100% Always,images\ LCHEEK_CFD_AF_245_143_N.png,0,0,0,0,4,55,435,25,,,,,,,,,,,,,,,,,,,,,,,,,,,2023-04-07_19h36.32.320,FaceAttractiveness,2022.2.5,139.68450855709384,
treatment,0% Never,100% Always,images\ NASALTIP_CFD_BF_224_002_N.png,0,0,0,0,4,56,436,66,,,,,,,,,,,,,,,,,,,,,,,,,,,2023-04-07_19h36.32.320,FaceAttractiveness,2022.2.5,139.68450855709384,
treatment,0% Never,100% Always,images\ LCHEEK_CFD_LF_224_176_N.png,0,0,0,0,4,57,437,31,,,,,,,,,,,,,,,,,,,,,,,,,,,2023-04-07_19h36.32.320,FaceAttractiveness,2022.2.5,139.68450855709384,
treatment,0% Never,100% Always,images\FOREHEAD_006_M_F_N_A.png,0,0,0,0,4,58,438,0,,,,,,,,,,,,,,,,,,,,,,,,,,,2023-04-07_19h36.32.320,FaceAttractiveness,2022.2.5,139.68450855709384,
treatment,0% Never,100% Always,images\FOREHEAD_CFD_WM_212_097_N.png,0,0,0,0,4,59,439,18,,,,,,,,,,,,,,,,,,,,,,,,,,,2023-04-07_19h36.32.320,FaceAttractiveness,2022.2.5,139.68450855709384,
treatment,0% Never,100% Always,images\ LCHEEK_CFD_LM_203_026_N.png,0,0,0,0,4,60,440,33,,,,,,,,,,,,,,,,,,,,,,,,,,,2023-04-07_19h36.32.320,FaceAttractiveness,2022.2.5,139.68450855709384,
treatment,0% Never,100% Always,images\ RCHEEK_CFD_LF_224_176_N.png,0,0,0,0,4,61,441,88,,,,,,,,,,,,,,,,,,,,,,,,,,,2023-04-07_19h36.32.320,FaceAttractiveness,2022.2.5,139.68450855709384,
treatment,0% Never,100% Always,images\ LIP_006_M_F_N_A.png,0,0,0,0,4,62,442,38,,,,,,,,,,,,,,,,,,,,,,,,,,,2023-04-07_19h36.32.320,FaceAttractiveness,2022.2.5,139.68450855709384,
treatment,0% Never,100% Always,images\FOREHEAD_CFD_BM_213_134_N.png,0,0,0,0,4,63,443,10,,,,,,,,,,,,,,,,,,,,,,,,,,,2023-04-07_19h36.32.320,FaceAttractiveness,2022.2.5,139.68450855709384,
treatment,0% Never,100% Always,images\ RCHEEK_087_M_M_N_A.png,0,0,0,0,4,64,444,78,,,,,,,,,,,,,,,,,,,,,,,,,,,2023-04-07_19h36.32.320,FaceAttractiveness,2022.2.5,139.68450855709384,
treatment,0% Never,100% Always,images\ NASALTIP_CFD_LF_224_176_N.png,0,0,0,0,4,65,445,69,,,,,,,,,,,,,,,,,,,,,,,,,,,2023-04-07_19h36.32.320,FaceAttractiveness,2022.2.5,139.68450855709384,
treatment,0% Never,100% Always,images\ LCHEEK_087_M_M_N_A.png,0,0,0,0,4,66,446,21,,,,,,,,,,,,,,,,,,,,,,,,,,,2023-04-07_19h36.32.320,FaceAttractiveness,2022.2.5,139.68450855709384,
treatment,0% Never,100% Always,"images\ LCHEEK_CFD_AM_233_236_N.png
",0,0,0,0,4,67,447,26,,,,,,,,,,,,,,,,,,,,,,,,,,,2023-04-07_19h36.32.320,FaceAttractiveness,2022.2.5,139.68450855709384,
treatment,0% Never,100% Always,"images\ NASALTIP_CFD_BM_234_172_N.png
",0,0,0,0,4,68,448,68,,,,,,,,,,,,,,,,,,,,,,,,,,,2023-04-07_19h36.32.320,FaceAttractiveness,2022.2.5,139.68450855709384,
treatment,0% Never,100% Always,images\FOREHEAD_CFD_WF_200_099_N.png,0,0,0,0,4,69,449,16,,,,,,,,,,,,,,,,,,,,,,,,,,,2023-04-07_19h36.32.320,FaceAttractiveness,2022.2.5,139.68450855709384,
treatment,0% Never,100% Always,images\FOREHEAD_CFD_AF_245_143_N.png,0,0,0,0,4,70,450,6,,,,,,,,,,,,,,,,,,,,,,,,,,,2023-04-07_19h36.32.320,FaceAttractiveness,2022.2.5,139.68450855709384,
treatment,0% Never,100% Always,images\ LCHEEK_CFD_BM_213_134_N.png,0,0,0,0,4,71,451,29,,,,,,,,,,,,,,,,,,,,,,,,,,,2023-04-07_19h36.32.320,FaceAttractiveness,2022.2.5,139.68450855709384,
treatment,0% Never,100% Always,images\ LIP_CFD_BF_214_308_N.png,0,0,0,0,4,72,452,46,,,,,,,,,,,,,,,,,,,,,,,,,,,2023-04-07_19h36.32.320,FaceAttractiveness,2022.2.5,139.68450855709384,
treatment,0% Never,100% Always,images\ LCHEEK_006_M_F_N_A.png,0,0,0,0,4,73,453,19,,,,,,,,,,,,,,,,,,,,,,,,,,,2023-04-07_19h36.32.320,FaceAttractiveness,2022.2.5,139.68450855709384,
treatment,0% Never,100% Always,images\ LIP_CFD_WM_212_097_N.png,0,0,0,0,4,74,454,56,,,,,,,,,,,,,,,,,,,,,,,,,,,2023-04-07_19h36.32.320,FaceAttractiveness,2022.2.5,139.68450855709384,
treatment,0% Never,100% Always,images\ NASALTIP_CFD_AF_245_143_N.png,0,0,0,0,4,75,455,63,,,,,,,,,,,,,,,,,,,,,,,,,,,2023-04-07_19h36.32.320,FaceAttractiveness,2022.2.5,139.68450855709384,
treatment,0% Never,100% Always,images\ RCHEEK_CFD_AF_231_357_N.png,0,0,0,0,4,76,456,80,,,,,,,,,,,,,,,,,,,,,,,,,,,2023-04-07_19h36.32.320,FaceAttractiveness,2022.2.5,139.68450855709384,
treatment,0% Never,100% Always,images\ NASALTIP_CFD_WF_200_099_N.png,0,0,0,0,4,77,457,73,,,,,,,,,,,,,,,,,,,,,,,,,,,2023-04-07_19h36.32.320,FaceAttractiveness,2022.2.5,139.68450855709384,
treatment,0% Never,100% Always,images\ LIP_CFD_AF_237_223_N.png,0,0,0,0,4,78,458,43,,,,,,,,,,,,,,,,,,,,,,,,,,,2023-04-07_19h36.32.320,FaceAttractiveness,2022.2.5,139.68450855709384,
treatment,0% Never,100% Always,images\ LCHEEK_CFD_BF_214_308_N.png,0,0,0,0,4,79,459,27,,,,,,,,,,,,,,,,,,,,,,,,,,,2023-04-07_19h36.32.320,FaceAttractiveness,2022.2.5,139.68450855709384,
treatment,0% Never,100% Always,images\FOREHEAD_CFD_LM_201_057_N.png,0,0,0,0,4,80,460,13,,,,,,,,,,,,,,,,,,,,,,,,,,,2023-04-07_19h36.32.320,FaceAttractiveness,2022.2.5,139.68450855709384,
treatment,0% Never,100% Always,images\ RCHEEK_CFD_BF_214_308_N.png,0,0,0,0,4,81,461,84,,,,,,,,,,,,,,,,,,,,,,,,,,,2023-04-07_19h36.32.320,FaceAttractiveness,2022.2.5,139.68450855709384,
treatment,0% Never,100% Always,images\ RCHEEK_CFD_BF_224_002_N.png,0,0,0,0,4,82,462,85,,,,,,,,,,,,,,,,,,,,,,,,,,,2023-04-07_19h36.32.320,FaceAttractiveness,2022.2.5,139.68450855709384,
treatment,0% Never,100% Always,images\ NASALTIP_CFD_LM_201_057_N.png,0,0,0,0,4,83,463,70,,,,,,,,,,,,,,,,,,,,,,,,,,,2023-04-07_19h36.32.320,FaceAttractiveness,2022.2.5,139.68450855709384,
treatment,0% Never,100% Always,images\ RCHEEK_006_M_F_N_A.png,0,0,0,0,4,84,464,76,,,,,,,,,,,,,,,,,,,,,,,,,,,2023-04-07_19h36.32.320,FaceAttractiveness,2022.2.5,139.68450855709384,
treatment,0% Never,100% Always,images\ NASALTIP_087_M_M_N_A.png,0,0,0,0,4,85,465,59,,,,,,,,,,,,,,,,,,,,,,,,,,,2023-04-07_19h36.32.320,FaceAttractiveness,2022.2.5,139.68450855709384,
treatment,0% Never,100% Always,images\ NASALTIP_006_M_F_N_A.png,0,0,0,0,4,86,466,57,,,,,,,,,,,,,,,,,,,,,,,,,,,2023-04-07_19h36.32.320,FaceAttractiveness,2022.2.5,139.68450855709384,
treatment,0% Never,100% Always,images\ RCHEEK_035_M_F_N_A.png,0,0,0,0,4,87,467,77,,,,,,,,,,,,,,,,,,,,,,,,,,,2023-04-07_19h36.32.320,FaceAttractiveness,2022.2.5,139.68450855709384,
treatment,0% Never,100% Always,images\ RCHEEK_CFD_WF_250_167_N.png,0,0,0,0,4,88,468,93,,,,,,,,,,,,,,,,,,,,,,,,,,,2023-04-07_19h36.32.320,FaceAttractiveness,2022.2.5,139.68450855709384,
treatment,0% Never,100% Always,images\ LIP_CFD_LM_201_057_N.png,0,0,0,0,4,89,469,51,,,,,,,,,,,,,,,,,,,,,,,,,,,2023-04-07_19h36.32.320,FaceAttractiveness,2022.2.5,139.68450855709384,
treatment,0% Never,100% Always,images\ LCHEEK_CFD_BF_224_002_N.png,0,0,0,0,4,90,470,28,,,,,,,,,,,,,,,,,,,,,,,,,,,2023-04-07_19h36.32.320,FaceAttractiveness,2022.2.5,139.68450855709384,
treatment,0% Never,100% Always,images\FOREHEAD_CFD_BF_224_002_N.png,0,0,0,0,4,91,471,9,,,,,,,,,,,,,,,,,,,,,,,,,,,2023-04-07_19h36.32.320,FaceAttractiveness,2022.2.5,139.68450855709384,
treatment,0% Never,100% Always,images\FOREHEAD_CFD_LM_203_026_N.png,0,0,0,0,4,92,472,14,,,,,,,,,,,,,,,,,,,,,,,,,,,2023-04-07_19h36.32.320,FaceAttractiveness,2022.2.5,139.68450855709384,
treatment,0% Never,100% Always,images\ NASALTIP_CFD_WF_250_167_N.png,0,0,0,0,4,93,473,74,,,,,,,,,,,,,,,,,,,,,,,,,,,2023-04-07_19h36.32.320,FaceAttractiveness,2022.2.5,139.68450855709384,
treatment,0% Never,100% Always,images\ NASALTIP_CFD_LM_203_026_N.png,0,0,0,0,4,94,474,71,,,,,,,,,,,,,,,,,,,,,,,,,,,2023-04-07_19h36.32.320,FaceAttractiveness,2022.2.5,139.68450855709384,
treatment,0% Never,100% Always,images\ RCHEEK_CFD_AF_245_143_N.png,0,0,0,0,5,0,475,82,,,,,,,,,,,,,,,,,,,,,,,,,,,2023-04-07_19h36.32.320,FaceAttractiveness,2022.2.5,139.68450855709384,
treatment,0% Never,100% Always,images\ NASALTIP_CFD_WM_212_097_N.png,0,0,0,0,5,1,476,75,,,,,,,,,,,,,,,,,,,,,,,,,,,2023-04-07_19h36.32.320,FaceAttractiveness,2022.2.5,139.68450855709384,
treatment,0% Never,100% Always,"images\ NASALTIP_136_M_M_N_A.png
",0,0,0,0,5,2,477,60,,,,,,,,,,,,,,,,,,,,,,,,,,,2023-04-07_19h36.32.320,FaceAttractiveness,2022.2.5,139.68450855709384,
treatment,0% Never,100% Always,images\ NASALTIP_CFD_LM_203_026_N.png,0,0,0,0,5,3,478,71,,,,,,,,,,,,,,,,,,,,,,,,,,,2023-04-07_19h36.32.320,FaceAttractiveness,2022.2.5,139.68450855709384,
treatment,0% Never,100% Always,images\ NASALTIP_CFD_BF_224_002_N.png,0,0,0,0,5,4,479,66,,,,,,,,,,,,,,,,,,,,,,,,,,,2023-04-07_19h36.32.320,FaceAttractiveness,2022.2.5,139.68450855709384,
treatment,0% Never,100% Always,images\ RCHEEK_CFD_LM_203_026_N.png,0,0,0,0,5,5,480,90,,,,,,,,,,,,,,,,,,,,,,,,,,,2023-04-07_19h36.32.320,FaceAttractiveness,2022.2.5,139.68450855709384,
treatment,0% Never,100% Always,images\ NASALTIP_CFD_AF_231_357_N.png,0,0,0,0,5,6,481,61,,,,,,,,,,,,,,,,,,,,,,,,,,,2023-04-07_19h36.32.320,FaceAttractiveness,2022.2.5,139.68450855709384,
treatment,0% Never,100% Always,"images\ RCHEEK_CFD_BM_234_172_N.png
",0,0,0,0,5,7,482,87,,,,,,,,,,,,,,,,,,,,,,,,,,,2023-04-07_19h36.32.320,FaceAttractiveness,2022.2.5,139.68450855709384,
treatment,0% Never,100% Always,"images\ RCHEEK_136_M_M_N_A.png
",0,0,0,0,5,8,483,79,,,,,,,,,,,,,,,,,,,,,,,,,,,2023-04-07_19h36.32.320,FaceAttractiveness,2022.2.5,139.68450855709384,
treatment,0% Never,100% Always,images\FOREHEAD_035_M_F_N_A.png,0,0,0,0,5,9,484,1,,,,,,,,,,,,,,,,,,,,,,,,,,,2023-04-07_19h36.32.320,FaceAttractiveness,2022.2.5,139.68450855709384,
treatment,0% Never,100% Always,images\FOREHEAD_CFD_WF_250_167_N.png,0,0,0,0,5,10,485,17,,,,,,,,,,,,,,,,,,,,,,,,,,,2023-04-07_19h36.32.320,FaceAttractiveness,2022.2.5,139.68450855709384,
treatment,0% Never,100% Always,images\ RCHEEK_035_M_F_N_A.png,0,0,0,0,5,11,486,77,,,,,,,,,,,,,,,,,,,,,,,,,,,2023-04-07_19h36.32.320,FaceAttractiveness,2022.2.5,139.68450855709384,
treatment,0% Never,100% Always,images\ LIP_CFD_LM_201_057_N.png,0,0,0,0,5,12,487,51,,,,,,,,,,,,,,,,,,,,,,,,,,,2023-04-07_19h36.32.320,FaceAttractiveness,2022.2.5,139.68450855709384,
treatment,0% Never,100% Always,images\ LIP_CFD_LF_224_176_N.png,0,0,0,0,5,13,488,50,,,,,,,,,,,,,,,,,,,,,,,,,,,2023-04-07_19h36.32.320,FaceAttractiveness,2022.2.5,139.68450855709384,
treatment,0% Never,100% Always,images\ NASALTIP_CFD_LM_201_057_N.png,0,0,0,0,5,14,489,70,,,,,,,,,,,,,,,,,,,,,,,,,,,2023-04-07_19h36.32.320,FaceAttractiveness,2022.2.5,139.68450855709384,
treatment,0% Never,100% Always,images\ LCHEEK_CFD_WF_250_167_N.png,0,0,0,0,5,15,490,36,,,,,,,,,,,,,,,,,,,,,,,,,,,2023-04-07_19h36.32.320,FaceAttractiveness,2022.2.5,139.68450855709384,
treatment,0% Never,100% Always,images\FOREHEAD_CFD_AM_233_236_N.png,0,0,0,0,5,16,491,7,,,,,,,,,,,,,,,,,,,,,,,,,,,2023-04-07_19h36.32.320,FaceAttractiveness,2022.2.5,139.68450855709384,
treatment,0% Never,100% Always,images\ NASALTIP_CFD_AF_245_143_N.png,0,0,0,0,5,17,492,63,,,,,,,,,,,,,,,,,,,,,,,,,,,2023-04-07_19h36.32.320,FaceAttractiveness,2022.2.5,139.68450855709384,
treatment,0% Never,100% Always,"images\ LIP_CFD_AM_233_236_N.png
",0,0,0,0,5,18,493,45,,,,,,,,,,,,,,,,,,,,,,,,,,,2023-04-07_19h36.32.320,FaceAttractiveness,2022.2.5,139.68450855709384,
treatment,0% Never,100% Always,"images\ LCHEEK_CFD_WF_002_004_N.png
",0,0,0,0,5,19,494,34,,,,,,,,,,,,,,,,,,,,,,,,,,,2023-04-07_19h36.32.320,FaceAttractiveness,2022.2.5,139.68450855709384,
treatment,0% Never,100% Always,images\FOREHEAD_136_M_M_N_A.png,0,0,0,0,5,20,495,3,,,,,,,,,,,,,,,,,,,,,,,,,,,2023-04-07_19h36.32.320,FaceAttractiveness,2022.2.5,139.68450855709384,
treatment,0% Never,100% Always,images\ NASALTIP_CFD_AF_237_223_N.png,0,0,0,0,5,21,496,62,,,,,,,,,,,,,,,,,,,,,,,,,,,2023-04-07_19h36.32.320,FaceAttractiveness,2022.2.5,139.68450855709384,
treatment,0% Never,100% Always,images\ LCHEEK_CFD_LF_224_176_N.png,0,0,0,0,5,22,497,31,,,,,,,,,,,,,,,,,,,,,,,,,,,2023-04-07_19h36.32.320,FaceAttractiveness,2022.2.5,139.68450855709384,
treatment,0% Never,100% Always,images\FOREHEAD_CFD_BM_234_172_N.png,0,0,0,0,5,23,498,11,,,,,,,,,,,,,,,,,,,,,,,,,,,2023-04-07_19h36.32.320,FaceAttractiveness,2022.2.5,139.68450855709384,
treatment,0% Never,100% Always,images\ LIP_CFD_AF_231_357_N.png,0,0,0,0,5,24,499,42,,,,,,,,,,,,,,,,,,,,,,,,,,,2023-04-07_19h36.32.320,FaceAttractiveness,2022.2.5,139.68450855709384,
treatment,0% Never,100% Always,images\ LIP_CFD_BF_224_002_N.png,0,0,0,0,5,25,500,47,,,,,,,,,,,,,,,,,,,,,,,,,,,2023-04-07_19h36.32.320,FaceAttractiveness,2022.2.5,139.68450855709384,
treatment,0% Never,100% Always,images\ RCHEEK_CFD_AF_237_223_N.png,0,0,0,0,5,26,501,81,,,,,,,,,,,,,,,,,,,,,,,,,,,2023-04-07_19h36.32.320,FaceAttractiveness,2022.2.5,139.68450855709384,
treatment,0% Never,100% Always,images\ LIP_CFD_AF_237_223_N.png,0,0,0,0,5,27,502,43,,,,,,,,,,,,,,,,,,,,,,,,,,,2023-04-07_19h36.32.320,FaceAttractiveness,2022.2.5,139.68450855709384,
treatment,0% Never,100% Always,images\FOREHEAD_CFD_LM_203_026_N.png,0,0,0,0,5,28,503,14,,,,,,,,,,,,,,,,,,,,,,,,,,,2023-04-07_19h36.32.320,FaceAttractiveness,2022.2.5,139.68450855709384,
treatment,0% Never,100% Always,images\ NASALTIP_CFD_BM_213_134_N.png,0,0,0,0,5,29,504,67,,,,,,,,,,,,,,,,,,,,,,,,,,,2023-04-07_19h36.32.320,FaceAttractiveness,2022.2.5,139.68450855709384,
treatment,0% Never,100% Always,images\ RCHEEK_CFD_LM_201_057_N.png,0,0,0,0,5,30,505,89,,,,,,,,,,,,,,,,,,,,,,,,,,,2023-04-07_19h36.32.320,FaceAttractiveness,2022.2.5,139.68450855709384,
treatment,0% Never,100% Always,"images\ LIP_136_M_M_N_A.png
",0,0,0,0,5,31,506,41,,,,,,,,,,,,,,,,,,,,,,,,,,,2023-04-07_19h36.32.320,FaceAttractiveness,2022.2.5,139.68450855709384,
treatment,0% Never,100% Always,images\ RCHEEK_CFD_LF_224_176_N.png,0,0,0,0,5,32,507,88,,,,,,,,,,,,,,,,,,,,,,,,,,,2023-04-07_19h36.32.320,FaceAttractiveness,2022.2.5,139.68450855709384,
treatment,0% Never,100% Always,images\ LIP_CFD_WF_250_167_N.png,0,0,0,0,5,33,508,55,,,,,,,,,,,,,,,,,,,,,,,,,,,2023-04-07_19h36.32.320,FaceAttractiveness,2022.2.5,139.68450855709384,
treatment,0% Never,100% Always,images\ RCHEEK_CFD_BF_224_002_N.png,0,0,0,0,5,34,509,85,,,,,,,,,,,,,,,,,,,,,,,,,,,2023-04-07_19h36.32.320,FaceAttractiveness,2022.2.5,139.68450855709384,
treatment,0% Never,100% Always,images\FOREHEAD_006_M_F_N_A.png,0,0,0,0,5,35,510,0,,,,,,,,,,,,,,,,,,,,,,,,,,,2023-04-07_19h36.32.320,FaceAttractiveness,2022.2.5,139.68450855709384,
treatment,0% Never,100% Always,images\FOREHEAD_CFD_WM_212_097_N.png,0,0,0,0,5,36,511,18,,,,,,,,,,,,,,,,,,,,,,,,,,,2023-04-07_19h36.32.320,FaceAttractiveness,2022.2.5,139.68450855709384,
treatment,0% Never,100% Always,"images\ LIP_CFD_BM_234_172_N.png
",0,0,0,0,5,37,512,49,,,,,,,,,,,,,,,,,,,,,,,,,,,2023-04-07_19h36.32.320,FaceAttractiveness,2022.2.5,139.68450855709384,
treatment,0% Never,100% Always,"images\ RCHEEK_CFD_WF_002_004_N.png
",0,0,0,0,5,38,513,91,,,,,,,,,,,,,,,,,,,,,,,,,,,2023-04-07_19h36.32.320,FaceAttractiveness,2022.2.5,139.68450855709384,
treatment,0% Never,100% Always,"images\ LCHEEK_CFD_BM_234_172_N.png
",0,0,0,0,5,39,514,30,,,,,,,,,,,,,,,,,,,,,,,,,,,2023-04-07_19h36.32.320,FaceAttractiveness,2022.2.5,139.68450855709384,
treatment,0% Never,100% Always,images\ LIP_006_M_F_N_A.png,0,0,0,0,5,40,515,38,,,,,,,,,,,,,,,,,,,,,,,,,,,2023-04-07_19h36.32.320,FaceAttractiveness,2022.2.5,139.68450855709384,
treatment,0% Never,100% Always,images\ RCHEEK_CFD_AF_231_357_N.png,0,0,0,0,5,41,516,80,,,,,,,,,,,,,,,,,,,,,,,,,,,2023-04-07_19h36.32.320,FaceAttractiveness,2022.2.5,139.68450855709384,
treatment,0% Never,100% Always,images\ LIP_CFD_LM_203_026_N.png,0,0,0,0,5,42,517,52,,,,,,,,,,,,,,,,,,,,,,,,,,,2023-04-07_19h36.32.320,FaceAttractiveness,2022.2.5,139.68450855709384,
treatment,0% Never,100% Always,"images\ LCHEEK_CFD_AM_233_236_N.png
",0,0,0,0,5,43,518,26,,,,,,,,,,,,,,,,,,,,,,,,,,,2023-04-07_19h36.32.320,FaceAttractiveness,2022.2.5,139.68450855709384,
treatment,0% Never,100% Always,"images\ RCHEEK_CFD_AM_233_236_N.png
",0,0,0,0,5,44,519,83,,,,,,,,,,,,,,,,,,,,,,,,,,,2023-04-07_19h36.32.320,FaceAttractiveness,2022.2.5,139.68450855709384,
treatment,0% Never,100% Always,images\ LCHEEK_087_M_M_N_A.png,0,0,0,0,5,45,520,21,,,,,,,,,,,,,,,,,,,,,,,,,,,2023-04-07_19h36.32.320,FaceAttractiveness,2022.2.5,139.68450855709384,
treatment,0% Never,100% Always,images\FOREHEAD_CFD_BF_214_308_N.png,0,0,0,0,5,46,521,8,,,,,,,,,,,,,,,,,,,,,,,,,,,2023-04-07_19h36.32.320,FaceAttractiveness,2022.2.5,139.68450855709384,
treatment,0% Never,100% Always,images\ LIP_CFD_BM_213_134_N.png,0,0,0,0,5,47,522,48,,,,,,,,,,,,,,,,,,,,,,,,,,,2023-04-07_19h36.32.320,FaceAttractiveness,2022.2.5,139.68450855709384,
treatment,0% Never,100% Always,images\FOREHEAD_CFD_WF_200_099_N.png,0,0,0,0,5,48,523,16,,,,,,,,,,,,,,,,,,,,,,,,,,,2023-04-07_19h36.32.320,FaceAttractiveness,2022.2.5,139.68450855709384,
treatment,0% Never,100% Always,"images\ NASALTIP_CFD_AM_233_236_N.png
",0,0,0,0,5,49,524,64,,,,,,,,,,,,,,,,,,,,,,,,,,,2023-04-07_19h36.32.320,FaceAttractiveness,2022.2.5,139.68450855709384,
treatment,0% Never,100% Always,images\ RCHEEK_006_M_F_N_A.png,0,0,0,0,5,50,525,76,,,,,,,,,,,,,,,,,,,,,,,,,,,2023-04-07_19h36.32.320,FaceAttractiveness,2022.2.5,139.68450855709384,
treatment,0% Never,100% Always,"images\ LCHEEK_136_M_M_N_A.png
",0,0,0,0,5,51,526,22,,,,,,,,,,,,,,,,,,,,,,,,,,,2023-04-07_19h36.32.320,FaceAttractiveness,2022.2.5,139.68450855709384,
treatment,0% Never,100% Always,images\ RCHEEK_CFD_BM_213_134_N.png,0,0,0,0,5,52,527,86,,,,,,,,,,,,,,,,,,,,,,,,,,,2023-04-07_19h36.32.320,FaceAttractiveness,2022.2.5,139.68450855709384,
treatment,0% Never,100% Always,images\ LIP_CFD_WF_200_099_N.png,0,0,0,0,5,53,528,54,,,,,,,,,,,,,,,,,,,,,,,,,,,2023-04-07_19h36.32.320,FaceAttractiveness,2022.2.5,139.68450855709384,
treatment,0% Never,100% Always,images\FOREHEAD_CFD_AF_245_143_N.png,0,0,0,0,5,54,529,6,,,,,,,,,,,,,,,,,,,,,,,,,,,2023-04-07_19h36.32.320,FaceAttractiveness,2022.2.5,139.68450855709384,
treatment,0% Never,100% Always,images\ NASALTIP_CFD_BF_214_308_N.png,0,0,0,0,5,55,530,65,,,,,,,,,,,,,,,,,,,,,,,,,,,2023-04-07_19h36.32.320,FaceAttractiveness,2022.2.5,139.68450855709384,
treatment,0% Never,100% Always,images\ LIP_CFD_WM_212_097_N.png,0,0,0,0,5,56,531,56,,,,,,,,,,,,,,,,,,,,,,,,,,,2023-04-07_19h36.32.320,FaceAttractiveness,2022.2.5,139.68450855709384,
treatment,0% Never,100% Always,images\ LIP_CFD_BF_214_308_N.png,0,0,0,0,5,57,532,46,,,,,,,,,,,,,,,,,,,,,,,,,,,2023-04-07_19h36.32.320,FaceAttractiveness,2022.2.5,139.68450855709384,
treatment,0% Never,100% Always,images\ LIP_035_M_F_N_A.png,0,0,0,0,5,58,533,39,,,,,,,,,,,,,,,,,,,,,,,,,,,2023-04-07_19h36.32.320,FaceAttractiveness,2022.2.5,139.68450855709384,
treatment,0% Never,100% Always,images\FOREHEAD_CFD_LM_201_057_N.png,0,0,0,0,5,59,534,13,,,,,,,,,,,,,,,,,,,,,,,,,,,2023-04-07_19h36.32.320,FaceAttractiveness,2022.2.5,139.68450855709384,
treatment,0% Never,100% Always,images\ NASALTIP_087_M_M_N_A.png,0,0,0,0,5,60,535,59,,,,,,,,,,,,,,,,,,,,,,,,,,,2023-04-07_19h36.32.320,FaceAttractiveness,2022.2.5,139.68450855709384,
treatment,0% Never,100% Always,images\ LIP_087_M_M_N_A.png,0,0,0,0,5,61,536,40,,,,,,,,,,,,,,,,,,,,,,,,,,,2023-04-07_19h36.32.320,FaceAttractiveness,2022.2.5,139.68450855709384,
treatment,0% Never,100% Always,images\ NASALTIP_006_M_F_N_A.png,0,0,0,0,5,62,537,57,,,,,,,,,,,,,,,,,,,,,,,,,,,2023-04-07_19h36.32.320,FaceAttractiveness,2022.2.5,139.68450855709384,
treatment,0% Never,100% Always,images\ RCHEEK_CFD_WM_212_097_N.png,0,0,0,0,5,63,538,94,,,,,,,,,,,,,,,,,,,,,,,,,,,2023-04-07_19h36.32.320,FaceAttractiveness,2022.2.5,139.68450855709384,
