Task,LeftLabel,RightLabel,faceImages,RatingBlockOrder.thisRepN,RatingBlockOrder.thisTrialN,RatingBlockOrder.thisN,RatingBlockOrder.thisIndex,originalFaceTrials.thisRepN,originalFaceTrials.thisTrialN,originalFaceTrials.thisN,originalFaceTrials.thisIndex,face_image_q.started,slider_trustworthy.started,text_trustworthy.started,slider_aggressive.started,text_aggressive.started,mouse_7.started,Confirm.started,Name,Gender,Age,Ethnicity,date,expName,psychopyVersion,frameRate,
treatment,0% Never,100% Always,images\FOREHEAD_CFD_WM_212_097_N.png,0,0,0,0,0,0,0,18,,,,,,,,,,,,2023-04-07_19h44.24.213,FaceAttractiveness,2022.2.5,143.67238097695653,
treatment,0% Never,100% Always,"images\ LIP_CFD_BM_234_172_N.png
",0,0,0,0,0,1,1,49,,,,,,,,,,,,2023-04-07_19h44.24.213,FaceAttractiveness,2022.2.5,143.67238097695653,
treatment,0% Never,100% Always,"images\ NASALTIP_CFD_BM_234_172_N.png
",0,0,0,0,0,2,2,68,,,,,,,,,,,,2023-04-07_19h44.24.213,FaceAttractiveness,2022.2.5,143.67238097695653,
treatment,0% Never,100% Always,images\ LIP_CFD_BM_213_134_N.png,0,0,0,0,0,3,3,48,,,,,,,,,,,,2023-04-07_19h44.24.213,FaceAttractiveness,2022.2.5,143.67238097695653,
treatment,0% Never,100% Always,"images\ LCHEEK_CFD_AM_233_236_N.png
",0,0,0,0,0,4,4,26,,,,,,,,,,,,2023-04-07_19h44.24.213,FaceAttractiveness,2022.2.5,143.67238097695653,
treatment,0% Never,100% Always,images\ LCHEEK_006_M_F_N_A.png,0,0,0,0,0,5,5,19,,,,,,,,,,,,2023-04-07_19h44.24.213,FaceAttractiveness,2022.2.5,143.67238097695653,
treatment,0% Never,100% Always,images\ RCHEEK_087_M_M_N_A.png,0,0,0,0,0,6,6,78,,,,,,,,,,,,2023-04-07_19h44.24.213,FaceAttractiveness,2022.2.5,143.67238097695653,
treatment,0% Never,100% Always,images\FOREHEAD_087_M_M_N_A.png,0,0,0,0,0,7,7,2,,,,,,,,,,,,2023-04-07_19h44.24.213,FaceAttractiveness,2022.2.5,143.67238097695653,
treatment,0% Never,100% Always,images\ NASALTIP_CFD_AF_231_357_N.png,0,0,0,0,0,8,8,61,,,,,,,,,,,,2023-04-07_19h44.24.213,FaceAttractiveness,2022.2.5,143.67238097695653,
treatment,0% Never,100% Always,images\ RCHEEK_CFD_LF_224_176_N.png,0,0,0,0,0,9,9,88,,,,,,,,,,,,2023-04-07_19h44.24.213,FaceAttractiveness,2022.2.5,143.67238097695653,
treatment,0% Never,100% Always,images\ NASALTIP_CFD_LM_203_026_N.png,0,0,0,0,0,10,10,71,,,,,,,,,,,,2023-04-07_19h44.24.213,FaceAttractiveness,2022.2.5,143.67238097695653,
treatment,0% Never,100% Always,images\ LIP_035_M_F_N_A.png,0,0,0,0,0,11,11,39,,,,,,,,,,,,2023-04-07_19h44.24.213,FaceAttractiveness,2022.2.5,143.67238097695653,
treatment,0% Never,100% Always,images\ NASALTIP_CFD_WM_212_097_N.png,0,0,0,0,0,12,12,75,,,,,,,,,,,,2023-04-07_19h44.24.213,FaceAttractiveness,2022.2.5,143.67238097695653,
treatment,0% Never,100% Always,images\ LCHEEK_CFD_WM_212_097_N.png,0,0,0,0,0,13,13,37,,,,,,,,,,,,2023-04-07_19h44.24.213,FaceAttractiveness,2022.2.5,143.67238097695653,
treatment,0% Never,100% Always,images\ LCHEEK_CFD_AF_245_143_N.png,0,0,0,0,0,14,14,25,,,,,,,,,,,,2023-04-07_19h44.24.213,FaceAttractiveness,2022.2.5,143.67238097695653,
treatment,0% Never,100% Always,"images\ NASALTIP_CFD_WF_002_004_N.png
",0,0,0,0,0,15,15,72,,,,,,,,,,,,2023-04-07_19h44.24.213,FaceAttractiveness,2022.2.5,143.67238097695653,
treatment,0% Never,100% Always,images\FOREHEAD_CFD_LM_203_026_N.png,0,0,0,0,0,16,16,14,,,,,,,,,,,,2023-04-07_19h44.24.213,FaceAttractiveness,2022.2.5,143.67238097695653,
treatment,0% Never,100% Always,images\ RCHEEK_CFD_BM_213_134_N.png,0,0,0,0,0,17,17,86,,,,,,,,,,,,2023-04-07_19h44.24.213,FaceAttractiveness,2022.2.5,143.67238097695653,
treatment,0% Never,100% Always,"images\ RCHEEK_CFD_BM_234_172_N.png
",0,0,0,0,0,18,18,87,,,,,,,,,,,,2023-04-07_19h44.24.213,FaceAttractiveness,2022.2.5,143.67238097695653,
treatment,0% Never,100% Always,images\ NASALTIP_CFD_BM_213_134_N.png,0,0,0,0,0,19,19,67,,,,,,,,,,,,2023-04-07_19h44.24.213,FaceAttractiveness,2022.2.5,143.67238097695653,
treatment,0% Never,100% Always,images\ LIP_CFD_LM_201_057_N.png,0,0,0,0,0,20,20,51,,,,,,,,,,,,2023-04-07_19h44.24.213,FaceAttractiveness,2022.2.5,143.67238097695653,
treatment,0% Never,100% Always,"images\ LIP_CFD_WF_002_004_N.png
",0,0,0,0,0,21,21,53,,,,,,,,,,,,2023-04-07_19h44.24.213,FaceAttractiveness,2022.2.5,143.67238097695653,
treatment,0% Never,100% Always,images\ LIP_CFD_LM_203_026_N.png,0,0,0,0,0,22,22,52,,,,,,,,,,,,2023-04-07_19h44.24.213,FaceAttractiveness,2022.2.5,143.67238097695653,
treatment,0% Never,100% Always,"images\ LIP_CFD_AM_233_236_N.png
",0,0,0,0,0,23,23,45,,,,,,,,,,,,2023-04-07_19h44.24.213,FaceAttractiveness,2022.2.5,143.67238097695653,
treatment,0% Never,100% Always,images\ RCHEEK_CFD_LM_201_057_N.png,0,0,0,0,0,24,24,89,,,,,,,,,,,,2023-04-07_19h44.24.213,FaceAttractiveness,2022.2.5,143.67238097695653,
treatment,0% Never,100% Always,images\FOREHEAD_CFD_BM_213_134_N.png,0,0,0,0,0,25,25,10,,,,,,,,,,,,2023-04-07_19h44.24.213,FaceAttractiveness,2022.2.5,143.67238097695653,
treatment,0% Never,100% Always,images\ RCHEEK_CFD_AF_245_143_N.png,0,0,0,0,0,26,26,82,,,,,,,,,,,,2023-04-07_19h44.24.213,FaceAttractiveness,2022.2.5,143.67238097695653,
treatment,0% Never,100% Always,images\ LCHEEK_CFD_WF_250_167_N.png,0,0,0,0,0,27,27,36,,,,,,,,,,,,2023-04-07_19h44.24.213,FaceAttractiveness,2022.2.5,143.67238097695653,
treatment,0% Never,100% Always,"images\ RCHEEK_CFD_WF_002_004_N.png
",0,0,0,0,0,28,28,91,,,,,,,,,,,,2023-04-07_19h44.24.213,FaceAttractiveness,2022.2.5,143.67238097695653,
treatment,0% Never,100% Always,images\ RCHEEK_006_M_F_N_A.png,0,0,0,0,0,29,29,76,,,,,,,,,,,,2023-04-07_19h44.24.213,FaceAttractiveness,2022.2.5,143.67238097695653,
treatment,0% Never,100% Always,images\FOREHEAD_136_M_M_N_A.png,0,0,0,0,0,30,30,3,,,,,,,,,,,,2023-04-07_19h44.24.213,FaceAttractiveness,2022.2.5,143.67238097695653,
treatment,0% Never,100% Always,images\FOREHEAD_CFD_BF_214_308_N.png,0,0,0,0,0,31,31,8,,,,,,,,,,,,2023-04-07_19h44.24.213,FaceAttractiveness,2022.2.5,143.67238097695653,
treatment,0% Never,100% Always,images\ LCHEEK_CFD_AF_237_223_N.png,0,0,0,0,0,32,32,24,,,,,,,,,,,,2023-04-07_19h44.24.213,FaceAttractiveness,2022.2.5,143.67238097695653,
treatment,0% Never,100% Always,images\ LCHEEK_CFD_LF_224_176_N.png,0,0,0,0,0,33,33,31,,,,,,,,,,,,2023-04-07_19h44.24.213,FaceAttractiveness,2022.2.5,143.67238097695653,
treatment,0% Never,100% Always,images\ NASALTIP_CFD_AF_245_143_N.png,0,0,0,0,0,34,34,63,,,,,,,,,,,,2023-04-07_19h44.24.213,FaceAttractiveness,2022.2.5,143.67238097695653,
treatment,0% Never,100% Always,images\ LIP_CFD_WM_212_097_N.png,0,0,0,0,0,35,35,56,,,,,,,,,,,,2023-04-07_19h44.24.213,FaceAttractiveness,2022.2.5,143.67238097695653,
treatment,0% Never,100% Always,images\ NASALTIP_CFD_LF_224_176_N.png,0,0,0,0,0,36,36,69,,,,,,,,,,,,2023-04-07_19h44.24.213,FaceAttractiveness,2022.2.5,143.67238097695653,
treatment,0% Never,100% Always,images\ LIP_CFD_WF_200_099_N.png,0,0,0,0,0,37,37,54,,,,,,,,,,,,2023-04-07_19h44.24.213,FaceAttractiveness,2022.2.5,143.67238097695653,
treatment,0% Never,100% Always,"images\ LCHEEK_CFD_WF_002_004_N.png
",0,0,0,0,0,38,38,34,,,,,,,,,,,,2023-04-07_19h44.24.213,FaceAttractiveness,2022.2.5,143.67238097695653,
treatment,0% Never,100% Always,images\ LCHEEK_CFD_LM_201_057_N.png,0,0,0,0,0,39,39,32,,,,,,,,,,,,2023-04-07_19h44.24.213,FaceAttractiveness,2022.2.5,143.67238097695653,
treatment,0% Never,100% Always,images\ RCHEEK_CFD_BF_224_002_N.png,0,0,0,0,0,40,40,85,,,,,,,,,,,,2023-04-07_19h44.24.213,FaceAttractiveness,2022.2.5,143.67238097695653,
treatment,0% Never,100% Always,images\FOREHEAD_CFD_BM_234_172_N.png,0,0,0,0,0,41,41,11,,,,,,,,,,,,2023-04-07_19h44.24.213,FaceAttractiveness,2022.2.5,143.67238097695653,
treatment,0% Never,100% Always,images\ LIP_CFD_AF_245_143_N.png,0,0,0,0,0,42,42,44,,,,,,,,,,,,2023-04-07_19h44.24.213,FaceAttractiveness,2022.2.5,143.67238097695653,
treatment,0% Never,100% Always,images\ LIP_CFD_AF_231_357_N.png,0,0,0,0,0,43,43,42,,,,,,,,,,,,2023-04-07_19h44.24.213,FaceAttractiveness,2022.2.5,143.67238097695653,
treatment,0% Never,100% Always,images\FOREHEAD_CFD_LF_224_176_N.png,0,0,0,0,0,44,44,12,,,,,,,,,,,,2023-04-07_19h44.24.213,FaceAttractiveness,2022.2.5,143.67238097695653,
treatment,0% Never,100% Always,images\ LCHEEK_087_M_M_N_A.png,0,0,0,0,0,45,45,21,,,,,,,,,,,,2023-04-07_19h44.24.213,FaceAttractiveness,2022.2.5,143.67238097695653,
treatment,0% Never,100% Always,images\ LIP_CFD_LF_224_176_N.png,0,0,0,0,0,46,46,50,,,,,,,,,,,,2023-04-07_19h44.24.213,FaceAttractiveness,2022.2.5,143.67238097695653,
treatment,0% Never,100% Always,"images\ LIP_136_M_M_N_A.png
",0,0,0,0,0,47,47,41,,,,,,,,,,,,2023-04-07_19h44.24.213,FaceAttractiveness,2022.2.5,143.67238097695653,
treatment,0% Never,100% Always,"images\ NASALTIP_136_M_M_N_A.png
",0,0,0,0,0,48,48,60,,,,,,,,,,,,2023-04-07_19h44.24.213,FaceAttractiveness,2022.2.5,143.67238097695653,
treatment,0% Never,100% Always,"images\ LCHEEK_CFD_BM_234_172_N.png
",0,0,0,0,0,49,49,30,,,,,,,,,,,,2023-04-07_19h44.24.213,FaceAttractiveness,2022.2.5,143.67238097695653,
treatment,0% Never,100% Always,images\ NASALTIP_087_M_M_N_A.png,0,0,0,0,0,50,50,59,,,,,,,,,,,,2023-04-07_19h44.24.213,FaceAttractiveness,2022.2.5,143.67238097695653,
treatment,0% Never,100% Always,images\ LIP_CFD_AF_237_223_N.png,0,0,0,0,0,51,51,43,,,,,,,,,,,,2023-04-07_19h44.24.213,FaceAttractiveness,2022.2.5,143.67238097695653,
treatment,0% Never,100% Always,images\ LIP_CFD_BF_224_002_N.png,0,0,0,0,0,52,52,47,,,,,,,,,,,,2023-04-07_19h44.24.213,FaceAttractiveness,2022.2.5,143.67238097695653,
treatment,0% Never,100% Always,images\FOREHEAD_CFD_WF_250_167_N.png,0,0,0,0,0,53,53,17,,,,,,,,,,,,2023-04-07_19h44.24.213,FaceAttractiveness,2022.2.5,143.67238097695653,
treatment,0% Never,100% Always,images\ LIP_CFD_WF_250_167_N.png,0,0,0,0,0,54,54,55,,,,,,,,,,,,2023-04-07_19h44.24.213,FaceAttractiveness,2022.2.5,143.67238097695653,
treatment,0% Never,100% Always,images\ LCHEEK_CFD_BF_214_308_N.png,0,0,0,0,0,55,55,27,,,,,,,,,,,,2023-04-07_19h44.24.213,FaceAttractiveness,2022.2.5,143.67238097695653,
treatment,0% Never,100% Always,images\ NASALTIP_CFD_WF_200_099_N.png,0,0,0,0,0,56,56,73,,,,,,,,,,,,2023-04-07_19h44.24.213,FaceAttractiveness,2022.2.5,143.67238097695653,
treatment,0% Never,100% Always,images\ LCHEEK_CFD_BF_224_002_N.png,0,0,0,0,0,57,57,28,,,,,,,,,,,,2023-04-07_19h44.24.213,FaceAttractiveness,2022.2.5,143.67238097695653,
treatment,0% Never,100% Always,images\FOREHEAD_CFD_AM_233_236_N.png,0,0,0,0,0,58,58,7,,,,,,,,,,,,2023-04-07_19h44.24.213,FaceAttractiveness,2022.2.5,143.67238097695653,
treatment,0% Never,100% Always,images\ NASALTIP_CFD_BF_224_002_N.png,0,0,0,0,0,59,59,66,,,,,,,,,,,,2023-04-07_19h44.24.213,FaceAttractiveness,2022.2.5,143.67238097695653,
treatment,0% Never,100% Always,images\ NASALTIP_035_M_F_N_A.png,0,0,0,0,0,60,60,58,,,,,,,,,,,,2023-04-07_19h44.24.213,FaceAttractiveness,2022.2.5,143.67238097695653,
treatment,0% Never,100% Always,images\ LCHEEK_CFD_AF_231_357_N.png,0,0,0,0,0,61,61,23,,,,,,,,,,,,2023-04-07_19h44.24.213,FaceAttractiveness,2022.2.5,143.67238097695653,
treatment,0% Never,100% Always,"images\ LCHEEK_136_M_M_N_A.png
",0,0,0,0,0,62,62,22,,,,,,,,,,,,2023-04-07_19h44.24.213,FaceAttractiveness,2022.2.5,143.67238097695653,
treatment,0% Never,100% Always,images\ LCHEEK_CFD_WF_200_099_N.png,0,0,0,0,0,63,63,35,,,,,,,,,,,,2023-04-07_19h44.24.213,FaceAttractiveness,2022.2.5,143.67238097695653,
treatment,0% Never,100% Always,images\FOREHEAD_CFD_AF_231_357_N.png,0,0,0,0,0,64,64,4,,,,,,,,,,,,2023-04-07_19h44.24.213,FaceAttractiveness,2022.2.5,143.67238097695653,
treatment,0% Never,100% Always,images\ LCHEEK_035_M_F_N_A.png,0,0,0,0,0,65,65,20,,,,,,,,,,,,2023-04-07_19h44.24.213,FaceAttractiveness,2022.2.5,143.67238097695653,
treatment,0% Never,100% Always,images\FOREHEAD_CFD_AF_245_143_N.png,0,0,0,0,0,66,66,6,,,,,,,,,,,,2023-04-07_19h44.24.213,FaceAttractiveness,2022.2.5,143.67238097695653,
treatment,0% Never,100% Always,images\ RCHEEK_CFD_WF_250_167_N.png,0,0,0,0,0,67,67,93,,,,,,,,,,,,2023-04-07_19h44.24.213,FaceAttractiveness,2022.2.5,143.67238097695653,
treatment,0% Never,100% Always,images\ RCHEEK_CFD_BF_214_308_N.png,0,0,0,0,0,68,68,84,,,,,,,,,,,,2023-04-07_19h44.24.213,FaceAttractiveness,2022.2.5,143.67238097695653,
treatment,0% Never,100% Always,images\ NASALTIP_006_M_F_N_A.png,0,0,0,0,0,69,69,57,,,,,,,,,,,,2023-04-07_19h44.24.213,FaceAttractiveness,2022.2.5,143.67238097695653,
treatment,0% Never,100% Always,images\FOREHEAD_CFD_WF_200_099_N.png,0,0,0,0,0,70,70,16,,,,,,,,,,,,2023-04-07_19h44.24.213,FaceAttractiveness,2022.2.5,143.67238097695653,
treatment,0% Never,100% Always,"images\ NASALTIP_CFD_AM_233_236_N.png
",0,0,0,0,0,71,71,64,,,,,,,,,,,,2023-04-07_19h44.24.213,FaceAttractiveness,2022.2.5,143.67238097695653,
treatment,0% Never,100% Always,images\ RCHEEK_CFD_WM_212_097_N.png,0,0,0,0,0,72,72,94,,,,,,,,,,,,2023-04-07_19h44.24.213,FaceAttractiveness,2022.2.5,143.67238097695653,
treatment,0% Never,100% Always,"images\ RCHEEK_CFD_AM_233_236_N.png
",0,0,0,0,0,73,73,83,,,,,,,,,,,,2023-04-07_19h44.24.213,FaceAttractiveness,2022.2.5,143.67238097695653,
treatment,0% Never,100% Always,"images\ RCHEEK_136_M_M_N_A.png
",0,0,0,0,0,74,74,79,,,,,,,,,,,,2023-04-07_19h44.24.213,FaceAttractiveness,2022.2.5,143.67238097695653,
treatment,0% Never,100% Always,images\FOREHEAD_035_M_F_N_A.png,0,0,0,0,0,75,75,1,,,,,,,,,,,,2023-04-07_19h44.24.213,FaceAttractiveness,2022.2.5,143.67238097695653,
treatment,0% Never,100% Always,images\ NASALTIP_CFD_LM_201_057_N.png,0,0,0,0,0,76,76,70,,,,,,,,,,,,2023-04-07_19h44.24.213,FaceAttractiveness,2022.2.5,143.67238097695653,
treatment,0% Never,100% Always,images\ RCHEEK_CFD_LM_203_026_N.png,0,0,0,0,0,77,77,90,,,,,,,,,,,,2023-04-07_19h44.24.213,FaceAttractiveness,2022.2.5,143.67238097695653,
treatment,0% Never,100% Always,images\ NASALTIP_CFD_BF_214_308_N.png,0,0,0,0,0,78,78,65,,,,,,,,,,,,2023-04-07_19h44.24.213,FaceAttractiveness,2022.2.5,143.67238097695653,
treatment,0% Never,100% Always,images\FOREHEAD_CFD_WF_002_004_N.png,0,0,0,0,0,79,79,15,,,,,,,,,,,,2023-04-07_19h44.24.213,FaceAttractiveness,2022.2.5,143.67238097695653,
treatment,0% Never,100% Always,images\FOREHEAD_CFD_LM_201_057_N.png,0,0,0,0,0,80,80,13,,,,,,,,,,,,2023-04-07_19h44.24.213,FaceAttractiveness,2022.2.5,143.67238097695653,
treatment,0% Never,100% Always,images\ LCHEEK_CFD_BM_213_134_N.png,0,0,0,0,0,81,81,29,,,,,,,,,,,,2023-04-07_19h44.24.213,FaceAttractiveness,2022.2.5,143.67238097695653,
treatment,0% Never,100% Always,images\ RCHEEK_CFD_WF_200_099_N.png,0,0,0,0,0,82,82,92,,,,,,,,,,,,2023-04-07_19h44.24.213,FaceAttractiveness,2022.2.5,143.67238097695653,
treatment,0% Never,100% Always,images\ RCHEEK_CFD_AF_231_357_N.png,0,0,0,0,0,83,83,80,,,,,,,,,,,,2023-04-07_19h44.24.213,FaceAttractiveness,2022.2.5,143.67238097695653,
treatment,0% Never,100% Always,images\ NASALTIP_CFD_WF_250_167_N.png,0,0,0,0,0,84,84,74,,,,,,,,,,,,2023-04-07_19h44.24.213,FaceAttractiveness,2022.2.5,143.67238097695653,
treatment,0% Never,100% Always,images\ LIP_006_M_F_N_A.png,0,0,0,0,0,85,85,38,,,,,,,,,,,,2023-04-07_19h44.24.213,FaceAttractiveness,2022.2.5,143.67238097695653,
treatment,0% Never,100% Always,images\ RCHEEK_035_M_F_N_A.png,0,0,0,0,0,86,86,77,,,,,,,,,,,,2023-04-07_19h44.24.213,FaceAttractiveness,2022.2.5,143.67238097695653,
treatment,0% Never,100% Always,images\FOREHEAD_CFD_AF_237_223_N.png,0,0,0,0,0,87,87,5,,,,,,,,,,,,2023-04-07_19h44.24.213,FaceAttractiveness,2022.2.5,143.67238097695653,
treatment,0% Never,100% Always,images\ RCHEEK_CFD_AF_237_223_N.png,0,0,0,0,0,88,88,81,,,,,,,,,,,,2023-04-07_19h44.24.213,FaceAttractiveness,2022.2.5,143.67238097695653,
treatment,0% Never,100% Always,images\ LIP_CFD_BF_214_308_N.png,0,0,0,0,0,89,89,46,,,,,,,,,,,,2023-04-07_19h44.24.213,FaceAttractiveness,2022.2.5,143.67238097695653,
treatment,0% Never,100% Always,images\FOREHEAD_006_M_F_N_A.png,0,0,0,0,0,90,90,0,,,,,,,,,,,,2023-04-07_19h44.24.213,FaceAttractiveness,2022.2.5,143.67238097695653,
treatment,0% Never,100% Always,images\ NASALTIP_CFD_AF_237_223_N.png,0,0,0,0,0,91,91,62,,,,,,,,,,,,2023-04-07_19h44.24.213,FaceAttractiveness,2022.2.5,143.67238097695653,
treatment,0% Never,100% Always,images\ LCHEEK_CFD_LM_203_026_N.png,0,0,0,0,0,92,92,33,,,,,,,,,,,,2023-04-07_19h44.24.213,FaceAttractiveness,2022.2.5,143.67238097695653,
treatment,0% Never,100% Always,images\ LIP_087_M_M_N_A.png,0,0,0,0,0,93,93,40,,,,,,,,,,,,2023-04-07_19h44.24.213,FaceAttractiveness,2022.2.5,143.67238097695653,
treatment,0% Never,100% Always,images\FOREHEAD_CFD_BF_224_002_N.png,0,0,0,0,0,94,94,9,,,,,,,,,,,,2023-04-07_19h44.24.213,FaceAttractiveness,2022.2.5,143.67238097695653,
treatment,0% Never,100% Always,"images\ LCHEEK_CFD_BM_234_172_N.png
",0,0,0,0,1,0,95,30,,,,,,,,,,,,2023-04-07_19h44.24.213,FaceAttractiveness,2022.2.5,143.67238097695653,
treatment,0% Never,100% Always,images\ LCHEEK_CFD_BF_214_308_N.png,0,0,0,0,1,1,96,27,,,,,,,,,,,,2023-04-07_19h44.24.213,FaceAttractiveness,2022.2.5,143.67238097695653,
treatment,0% Never,100% Always,images\ LIP_CFD_AF_245_143_N.png,0,0,0,0,1,2,97,44,,,,,,,,,,,,2023-04-07_19h44.24.213,FaceAttractiveness,2022.2.5,143.67238097695653,
treatment,0% Never,100% Always,images\FOREHEAD_006_M_F_N_A.png,0,0,0,0,1,3,98,0,,,,,,,,,,,,2023-04-07_19h44.24.213,FaceAttractiveness,2022.2.5,143.67238097695653,
treatment,0% Never,100% Always,"images\ LIP_136_M_M_N_A.png
",0,0,0,0,1,4,99,41,,,,,,,,,,,,2023-04-07_19h44.24.213,FaceAttractiveness,2022.2.5,143.67238097695653,
treatment,0% Never,100% Always,images\ RCHEEK_CFD_WF_200_099_N.png,0,0,0,0,1,5,100,92,,,,,,,,,,,,2023-04-07_19h44.24.213,FaceAttractiveness,2022.2.5,143.67238097695653,
treatment,0% Never,100% Always,images\ LCHEEK_CFD_LM_203_026_N.png,0,0,0,0,1,6,101,33,,,,,,,,,,,,2023-04-07_19h44.24.213,FaceAttractiveness,2022.2.5,143.67238097695653,
treatment,0% Never,100% Always,images\ RCHEEK_087_M_M_N_A.png,0,0,0,0,1,7,102,78,,,,,,,,,,,,2023-04-07_19h44.24.213,FaceAttractiveness,2022.2.5,143.67238097695653,
treatment,0% Never,100% Always,images\ LIP_035_M_F_N_A.png,0,0,0,0,1,8,103,39,,,,,,,,,,,,2023-04-07_19h44.24.213,FaceAttractiveness,2022.2.5,143.67238097695653,
treatment,0% Never,100% Always,images\ LIP_CFD_LF_224_176_N.png,0,0,0,0,1,9,104,50,,,,,,,,,,,,2023-04-07_19h44.24.213,FaceAttractiveness,2022.2.5,143.67238097695653,
treatment,0% Never,100% Always,images\FOREHEAD_CFD_LF_224_176_N.png,0,0,0,0,1,10,105,12,,,,,,,,,,,,2023-04-07_19h44.24.213,FaceAttractiveness,2022.2.5,143.67238097695653,
treatment,0% Never,100% Always,images\ LCHEEK_CFD_AF_231_357_N.png,0,0,0,0,1,11,106,23,,,,,,,,,,,,2023-04-07_19h44.24.213,FaceAttractiveness,2022.2.5,143.67238097695653,
treatment,0% Never,100% Always,images\ NASALTIP_CFD_BF_224_002_N.png,0,0,0,0,1,12,107,66,,,,,,,,,,,,2023-04-07_19h44.24.213,FaceAttractiveness,2022.2.5,143.67238097695653,
treatment,0% Never,100% Always,images\ NASALTIP_CFD_BF_214_308_N.png,0,0,0,0,1,13,108,65,,,,,,,,,,,,2023-04-07_19h44.24.213,FaceAttractiveness,2022.2.5,143.67238097695653,
treatment,0% Never,100% Always,images\ NASALTIP_035_M_F_N_A.png,0,0,0,0,1,14,109,58,,,,,,,,,,,,2023-04-07_19h44.24.213,FaceAttractiveness,2022.2.5,143.67238097695653,
treatment,0% Never,100% Always,images\FOREHEAD_CFD_WF_002_004_N.png,0,0,0,0,1,15,110,15,,,,,,,,,,,,2023-04-07_19h44.24.213,FaceAttractiveness,2022.2.5,143.67238097695653,
treatment,0% Never,100% Always,images\ NASALTIP_CFD_BM_213_134_N.png,0,0,0,0,1,16,111,67,,,,,,,,,,,,2023-04-07_19h44.24.213,FaceAttractiveness,2022.2.5,143.67238097695653,
treatment,0% Never,100% Always,images\ RCHEEK_CFD_LM_203_026_N.png,0,0,0,0,1,17,112,90,,,,,,,,,,,,2023-04-07_19h44.24.213,FaceAttractiveness,2022.2.5,143.67238097695653,
treatment,0% Never,100% Always,images\ LCHEEK_035_M_F_N_A.png,0,0,0,0,1,18,113,20,,,,,,,,,,,,2023-04-07_19h44.24.213,FaceAttractiveness,2022.2.5,143.67238097695653,
treatment,0% Never,100% Always,images\ RCHEEK_CFD_LF_224_176_N.png,0,0,0,0,1,19,114,88,,,,,,,,,,,,2023-04-07_19h44.24.213,FaceAttractiveness,2022.2.5,143.67238097695653,
treatment,0% Never,100% Always,images\ RCHEEK_CFD_BF_224_002_N.png,0,0,0,0,1,20,115,85,,,,,,,,,,,,2023-04-07_19h44.24.213,FaceAttractiveness,2022.2.5,143.67238097695653,
treatment,0% Never,100% Always,images\ RCHEEK_006_M_F_N_A.png,0,0,0,0,1,21,116,76,,,,,,,,,,,,2023-04-07_19h44.24.213,FaceAttractiveness,2022.2.5,143.67238097695653,
treatment,0% Never,100% Always,images\ RCHEEK_CFD_AF_237_223_N.png,0,0,0,0,1,22,117,81,,,,,,,,,,,,2023-04-07_19h44.24.213,FaceAttractiveness,2022.2.5,143.67238097695653,
treatment,0% Never,100% Always,"images\ LCHEEK_CFD_AM_233_236_N.png
",0,0,0,0,1,23,118,26,,,,,,,,,,,,2023-04-07_19h44.24.213,FaceAttractiveness,2022.2.5,143.67238097695653,
treatment,0% Never,100% Always,images\ LCHEEK_CFD_AF_237_223_N.png,0,0,0,0,1,24,119,24,,,,,,,,,,,,2023-04-07_19h44.24.213,FaceAttractiveness,2022.2.5,143.67238097695653,
treatment,0% Never,100% Always,images\ LIP_CFD_WM_212_097_N.png,0,0,0,0,1,25,120,56,,,,,,,,,,,,2023-04-07_19h44.24.213,FaceAttractiveness,2022.2.5,143.67238097695653,
treatment,0% Never,100% Always,"images\ LCHEEK_136_M_M_N_A.png
",0,0,0,0,1,26,121,22,,,,,,,,,,,,2023-04-07_19h44.24.213,FaceAttractiveness,2022.2.5,143.67238097695653,
treatment,0% Never,100% Always,images\ LCHEEK_CFD_LM_201_057_N.png,0,0,0,0,1,27,122,32,,,,,,,,,,,,2023-04-07_19h44.24.213,FaceAttractiveness,2022.2.5,143.67238097695653,
treatment,0% Never,100% Always,images\FOREHEAD_035_M_F_N_A.png,0,0,0,0,1,28,123,1,,,,,,,,,,,,2023-04-07_19h44.24.213,FaceAttractiveness,2022.2.5,143.67238097695653,
treatment,0% Never,100% Always,images\ LIP_CFD_WF_200_099_N.png,0,0,0,0,1,29,124,54,,,,,,,,,,,,2023-04-07_19h44.24.213,FaceAttractiveness,2022.2.5,143.67238097695653,
treatment,0% Never,100% Always,images\ RCHEEK_CFD_LM_201_057_N.png,0,0,0,0,1,30,125,89,,,,,,,,,,,,2023-04-07_19h44.24.213,FaceAttractiveness,2022.2.5,143.67238097695653,
treatment,0% Never,100% Always,images\ LCHEEK_CFD_LF_224_176_N.png,0,0,0,0,1,31,126,31,,,,,,,,,,,,2023-04-07_19h44.24.213,FaceAttractiveness,2022.2.5,143.67238097695653,
treatment,0% Never,100% Always,images\FOREHEAD_CFD_BM_213_134_N.png,0,0,0,0,1,32,127,10,,,,,,,,,,,,2023-04-07_19h44.24.213,FaceAttractiveness,2022.2.5,143.67238097695653,
treatment,0% Never,100% Always,images\ NASALTIP_CFD_WM_212_097_N.png,0,0,0,0,1,33,128,75,,,,,,,,,,,,2023-04-07_19h44.24.213,FaceAttractiveness,2022.2.5,143.67238097695653,
treatment,0% Never,100% Always,images\ LIP_CFD_BF_224_002_N.png,0,0,0,0,1,34,129,47,,,,,,,,,,,,2023-04-07_19h44.24.213,FaceAttractiveness,2022.2.5,143.67238097695653,
treatment,0% Never,100% Always,images\FOREHEAD_CFD_AF_245_143_N.png,0,0,0,0,1,35,130,6,,,,,,,,,,,,2023-04-07_19h44.24.213,FaceAttractiveness,2022.2.5,143.67238097695653,
treatment,0% Never,100% Always,images\FOREHEAD_CFD_LM_203_026_N.png,0,0,0,0,1,36,131,14,,,,,,,,,,,,2023-04-07_19h44.24.213,FaceAttractiveness,2022.2.5,143.67238097695653,
treatment,0% Never,100% Always,images\ LIP_CFD_LM_203_026_N.png,0,0,0,0,1,37,132,52,,,,,,,,,,,,2023-04-07_19h44.24.213,FaceAttractiveness,2022.2.5,143.67238097695653,
treatment,0% Never,100% Always,images\ LIP_CFD_LM_201_057_N.png,0,0,0,0,1,38,133,51,,,,,,,,,,,,2023-04-07_19h44.24.213,FaceAttractiveness,2022.2.5,143.67238097695653,
treatment,0% Never,100% Always,images\ LIP_CFD_BF_214_308_N.png,0,0,0,0,1,39,134,46,,,,,,,,,,,,2023-04-07_19h44.24.213,FaceAttractiveness,2022.2.5,143.67238097695653,
treatment,0% Never,100% Always,images\FOREHEAD_CFD_BF_214_308_N.png,0,0,0,0,1,40,135,8,,,,,,,,,,,,2023-04-07_19h44.24.213,FaceAttractiveness,2022.2.5,143.67238097695653,
treatment,0% Never,100% Always,"images\ RCHEEK_136_M_M_N_A.png
",0,0,0,0,1,41,136,79,,,,,,,,,,,,2023-04-07_19h44.24.213,FaceAttractiveness,2022.2.5,143.67238097695653,
treatment,0% Never,100% Always,images\FOREHEAD_087_M_M_N_A.png,0,0,0,0,1,42,137,2,,,,,,,,,,,,2023-04-07_19h44.24.213,FaceAttractiveness,2022.2.5,143.67238097695653,
treatment,0% Never,100% Always,images\ NASALTIP_087_M_M_N_A.png,0,0,0,0,1,43,138,59,,,,,,,,,,,,2023-04-07_19h44.24.213,FaceAttractiveness,2022.2.5,143.67238097695653,
treatment,0% Never,100% Always,images\ NASALTIP_CFD_AF_231_357_N.png,0,0,0,0,1,44,139,61,,,,,,,,,,,,2023-04-07_19h44.24.213,FaceAttractiveness,2022.2.5,143.67238097695653,
treatment,0% Never,100% Always,images\ NASALTIP_CFD_AF_237_223_N.png,0,0,0,0,1,45,140,62,,,,,,,,,,,,2023-04-07_19h44.24.213,FaceAttractiveness,2022.2.5,143.67238097695653,
treatment,0% Never,100% Always,images\FOREHEAD_CFD_WF_250_167_N.png,0,0,0,0,1,46,141,17,,,,,,,,,,,,2023-04-07_19h44.24.213,FaceAttractiveness,2022.2.5,143.67238097695653,
treatment,0% Never,100% Always,"images\ RCHEEK_CFD_AM_233_236_N.png
",0,0,0,0,1,47,142,83,,,,,,,,,,,,2023-04-07_19h44.24.213,FaceAttractiveness,2022.2.5,143.67238097695653,
treatment,0% Never,100% Always,images\ LCHEEK_087_M_M_N_A.png,0,0,0,0,1,48,143,21,,,,,,,,,,,,2023-04-07_19h44.24.213,FaceAttractiveness,2022.2.5,143.67238097695653,
treatment,0% Never,100% Always,images\ LCHEEK_CFD_BM_213_134_N.png,0,0,0,0,1,49,144,29,,,,,,,,,,,,2023-04-07_19h44.24.213,FaceAttractiveness,2022.2.5,143.67238097695653,
treatment,0% Never,100% Always,images\ NASALTIP_CFD_AF_245_143_N.png,0,0,0,0,1,50,145,63,,,,,,,,,,,,2023-04-07_19h44.24.213,FaceAttractiveness,2022.2.5,143.67238097695653,
treatment,0% Never,100% Always,images\ RCHEEK_CFD_AF_231_357_N.png,0,0,0,0,1,51,146,80,,,,,,,,,,,,2023-04-07_19h44.24.213,FaceAttractiveness,2022.2.5,143.67238097695653,
treatment,0% Never,100% Always,images\ LCHEEK_006_M_F_N_A.png,0,0,0,0,1,52,147,19,,,,,,,,,,,,2023-04-07_19h44.24.213,FaceAttractiveness,2022.2.5,143.67238097695653,
treatment,0% Never,100% Always,images\FOREHEAD_CFD_AF_231_357_N.png,0,0,0,0,1,53,148,4,,,,,,,,,,,,2023-04-07_19h44.24.213,FaceAttractiveness,2022.2.5,143.67238097695653,
treatment,0% Never,100% Always,images\ LIP_006_M_F_N_A.png,0,0,0,0,1,54,149,38,,,,,,,,,,,,2023-04-07_19h44.24.213,FaceAttractiveness,2022.2.5,143.67238097695653,
treatment,0% Never,100% Always,images\ NASALTIP_CFD_WF_200_099_N.png,0,0,0,0,1,55,150,73,,,,,,,,,,,,2023-04-07_19h44.24.213,FaceAttractiveness,2022.2.5,143.67238097695653,
treatment,0% Never,100% Always,images\ LCHEEK_CFD_WF_250_167_N.png,0,0,0,0,1,56,151,36,,,,,,,,,,,,2023-04-07_19h44.24.213,FaceAttractiveness,2022.2.5,143.67238097695653,
treatment,0% Never,100% Always,images\ RCHEEK_CFD_WM_212_097_N.png,0,0,0,0,1,57,152,94,,,,,,,,,,,,2023-04-07_19h44.24.213,FaceAttractiveness,2022.2.5,143.67238097695653,
treatment,0% Never,100% Always,"images\ RCHEEK_CFD_BM_234_172_N.png
",0,0,0,0,1,58,153,87,,,,,,,,,,,,2023-04-07_19h44.24.213,FaceAttractiveness,2022.2.5,143.67238097695653,
treatment,0% Never,100% Always,images\ LCHEEK_CFD_WF_200_099_N.png,0,0,0,0,1,59,154,35,,,,,,,,,,,,2023-04-07_19h44.24.213,FaceAttractiveness,2022.2.5,143.67238097695653,
treatment,0% Never,100% Always,images\ NASALTIP_CFD_LM_203_026_N.png,0,0,0,0,1,60,155,71,,,,,,,,,,,,2023-04-07_19h44.24.213,FaceAttractiveness,2022.2.5,143.67238097695653,
treatment,0% Never,100% Always,images\ NASALTIP_CFD_LM_201_057_N.png,0,0,0,0,1,61,156,70,,,,,,,,,,,,2023-04-07_19h44.24.213,FaceAttractiveness,2022.2.5,143.67238097695653,
treatment,0% Never,100% Always,"images\ LIP_CFD_BM_234_172_N.png
",0,0,0,0,1,62,157,49,,,,,,,,,,,,2023-04-07_19h44.24.213,FaceAttractiveness,2022.2.5,143.67238097695653,
treatment,0% Never,100% Always,images\ LIP_CFD_WF_250_167_N.png,0,0,0,0,1,63,158,55,,,,,,,,,,,,2023-04-07_19h44.24.213,FaceAttractiveness,2022.2.5,143.67238097695653,
treatment,0% Never,100% Always,"images\ LIP_CFD_WF_002_004_N.png
",0,0,0,0,1,64,159,53,,,,,,,,,,,,2023-04-07_19h44.24.213,FaceAttractiveness,2022.2.5,143.67238097695653,
treatment,0% Never,100% Always,images\ RCHEEK_CFD_BM_213_134_N.png,0,0,0,0,1,65,160,86,,,,,,,,,,,,2023-04-07_19h44.24.213,FaceAttractiveness,2022.2.5,143.67238097695653,
treatment,0% Never,100% Always,images\ NASALTIP_CFD_WF_250_167_N.png,0,0,0,0,1,66,161,74,,,,,,,,,,,,2023-04-07_19h44.24.213,FaceAttractiveness,2022.2.5,143.67238097695653,
treatment,0% Never,100% Always,images\ RCHEEK_CFD_BF_214_308_N.png,0,0,0,0,1,67,162,84,,,,,,,,,,,,2023-04-07_19h44.24.213,FaceAttractiveness,2022.2.5,143.67238097695653,
treatment,0% Never,100% Always,images\ LCHEEK_CFD_WM_212_097_N.png,0,0,0,0,1,68,163,37,,,,,,,,,,,,2023-04-07_19h44.24.213,FaceAttractiveness,2022.2.5,143.67238097695653,
treatment,0% Never,100% Always,images\FOREHEAD_CFD_WF_200_099_N.png,0,0,0,0,1,69,164,16,,,,,,,,,,,,2023-04-07_19h44.24.213,FaceAttractiveness,2022.2.5,143.67238097695653,
treatment,0% Never,100% Always,images\FOREHEAD_CFD_LM_201_057_N.png,0,0,0,0,1,70,165,13,,,,,,,,,,,,2023-04-07_19h44.24.213,FaceAttractiveness,2022.2.5,143.67238097695653,
treatment,0% Never,100% Always,images\FOREHEAD_136_M_M_N_A.png,0,0,0,0,1,71,166,3,,,,,,,,,,,,2023-04-07_19h44.24.213,FaceAttractiveness,2022.2.5,143.67238097695653,
treatment,0% Never,100% Always,"images\ LIP_CFD_AM_233_236_N.png
",0,0,0,0,1,72,167,45,,,,,,,,,,,,2023-04-07_19h44.24.213,FaceAttractiveness,2022.2.5,143.67238097695653,
treatment,0% Never,100% Always,images\ NASALTIP_CFD_LF_224_176_N.png,0,0,0,0,1,73,168,69,,,,,,,,,,,,2023-04-07_19h44.24.213,FaceAttractiveness,2022.2.5,143.67238097695653,
treatment,0% Never,100% Always,images\FOREHEAD_CFD_AM_233_236_N.png,0,0,0,0,1,74,169,7,,,,,,,,,,,,2023-04-07_19h44.24.213,FaceAttractiveness,2022.2.5,143.67238097695653,
treatment,0% Never,100% Always,images\FOREHEAD_CFD_BM_234_172_N.png,0,0,0,0,1,75,170,11,,,,,,,,,,,,2023-04-07_19h44.24.213,FaceAttractiveness,2022.2.5,143.67238097695653,
treatment,0% Never,100% Always,"images\ NASALTIP_CFD_BM_234_172_N.png
",0,0,0,0,1,76,171,68,,,,,,,,,,,,2023-04-07_19h44.24.213,FaceAttractiveness,2022.2.5,143.67238097695653,
treatment,0% Never,100% Always,images\FOREHEAD_CFD_BF_224_002_N.png,0,0,0,0,1,77,172,9,,,,,,,,,,,,2023-04-07_19h44.24.213,FaceAttractiveness,2022.2.5,143.67238097695653,
treatment,0% Never,100% Always,images\ LIP_087_M_M_N_A.png,0,0,0,0,1,78,173,40,,,,,,,,,,,,2023-04-07_19h44.24.213,FaceAttractiveness,2022.2.5,143.67238097695653,
treatment,0% Never,100% Always,images\ RCHEEK_CFD_AF_245_143_N.png,0,0,0,0,1,79,174,82,,,,,,,,,,,,2023-04-07_19h44.24.213,FaceAttractiveness,2022.2.5,143.67238097695653,
treatment,0% Never,100% Always,images\ RCHEEK_035_M_F_N_A.png,0,0,0,0,1,80,175,77,,,,,,,,,,,,2023-04-07_19h44.24.213,FaceAttractiveness,2022.2.5,143.67238097695653,
treatment,0% Never,100% Always,"images\ NASALTIP_CFD_WF_002_004_N.png
",0,0,0,0,1,81,176,72,,,,,,,,,,,,2023-04-07_19h44.24.213,FaceAttractiveness,2022.2.5,143.67238097695653,
treatment,0% Never,100% Always,images\ LIP_CFD_AF_231_357_N.png,0,0,0,0,1,82,177,42,,,,,,,,,,,,2023-04-07_19h44.24.213,FaceAttractiveness,2022.2.5,143.67238097695653,
treatment,0% Never,100% Always,"images\ RCHEEK_CFD_WF_002_004_N.png
",0,0,0,0,1,83,178,91,,,,,,,,,,,,2023-04-07_19h44.24.213,FaceAttractiveness,2022.2.5,143.67238097695653,
treatment,0% Never,100% Always,images\ RCHEEK_CFD_WF_250_167_N.png,0,0,0,0,1,84,179,93,,,,,,,,,,,,2023-04-07_19h44.24.213,FaceAttractiveness,2022.2.5,143.67238097695653,
treatment,0% Never,100% Always,images\ LIP_CFD_BM_213_134_N.png,0,0,0,0,1,85,180,48,,,,,,,,,,,,2023-04-07_19h44.24.213,FaceAttractiveness,2022.2.5,143.67238097695653,
treatment,0% Never,100% Always,images\ LCHEEK_CFD_AF_245_143_N.png,0,0,0,0,1,86,181,25,,,,,,,,,,,,2023-04-07_19h44.24.213,FaceAttractiveness,2022.2.5,143.67238097695653,
treatment,0% Never,100% Always,"images\ NASALTIP_CFD_AM_233_236_N.png
",0,0,0,0,1,87,182,64,,,,,,,,,,,,2023-04-07_19h44.24.213,FaceAttractiveness,2022.2.5,143.67238097695653,
treatment,0% Never,100% Always,images\FOREHEAD_CFD_WM_212_097_N.png,0,0,0,0,1,88,183,18,,,,,,,,,,,,2023-04-07_19h44.24.213,FaceAttractiveness,2022.2.5,143.67238097695653,
treatment,0% Never,100% Always,"images\ LCHEEK_CFD_WF_002_004_N.png
",0,0,0,0,1,89,184,34,,,,,,,,,,,,2023-04-07_19h44.24.213,FaceAttractiveness,2022.2.5,143.67238097695653,
treatment,0% Never,100% Always,images\FOREHEAD_CFD_AF_237_223_N.png,0,0,0,0,1,90,185,5,,,,,,,,,,,,2023-04-07_19h44.24.213,FaceAttractiveness,2022.2.5,143.67238097695653,
treatment,0% Never,100% Always,images\ NASALTIP_006_M_F_N_A.png,0,0,0,0,1,91,186,57,,,,,,,,,,,,2023-04-07_19h44.24.213,FaceAttractiveness,2022.2.5,143.67238097695653,
treatment,0% Never,100% Always,"images\ NASALTIP_136_M_M_N_A.png
",0,0,0,0,1,92,187,60,,,,,,,,,,,,2023-04-07_19h44.24.213,FaceAttractiveness,2022.2.5,143.67238097695653,
treatment,0% Never,100% Always,images\ LCHEEK_CFD_BF_224_002_N.png,0,0,0,0,1,93,188,28,,,,,,,,,,,,2023-04-07_19h44.24.213,FaceAttractiveness,2022.2.5,143.67238097695653,
treatment,0% Never,100% Always,images\ LIP_CFD_AF_237_223_N.png,0,0,0,0,1,94,189,43,,,,,,,,,,,,2023-04-07_19h44.24.213,FaceAttractiveness,2022.2.5,143.67238097695653,
treatment,0% Never,100% Always,"images\ RCHEEK_CFD_BM_234_172_N.png
",0,0,0,0,2,0,190,87,,,,,,,,,,,,2023-04-07_19h44.24.213,FaceAttractiveness,2022.2.5,143.67238097695653,
treatment,0% Never,100% Always,images\FOREHEAD_CFD_AF_237_223_N.png,0,0,0,0,2,1,191,5,,,,,,,,,,,,2023-04-07_19h44.24.213,FaceAttractiveness,2022.2.5,143.67238097695653,
treatment,0% Never,100% Always,images\ RCHEEK_006_M_F_N_A.png,0,0,0,0,2,2,192,76,,,,,,,,,,,,2023-04-07_19h44.24.213,FaceAttractiveness,2022.2.5,143.67238097695653,
treatment,0% Never,100% Always,"images\ RCHEEK_CFD_WF_002_004_N.png
",0,0,0,0,2,3,193,91,,,,,,,,,,,,2023-04-07_19h44.24.213,FaceAttractiveness,2022.2.5,143.67238097695653,
treatment,0% Never,100% Always,images\ RCHEEK_CFD_LM_201_057_N.png,0,0,0,0,2,4,194,89,,,,,,,,,,,,2023-04-07_19h44.24.213,FaceAttractiveness,2022.2.5,143.67238097695653,
treatment,0% Never,100% Always,images\ LIP_CFD_LM_201_057_N.png,0,0,0,0,2,5,195,51,,,,,,,,,,,,2023-04-07_19h44.24.213,FaceAttractiveness,2022.2.5,143.67238097695653,
treatment,0% Never,100% Always,images\ LCHEEK_006_M_F_N_A.png,0,0,0,0,2,6,196,19,,,,,,,,,,,,2023-04-07_19h44.24.213,FaceAttractiveness,2022.2.5,143.67238097695653,
treatment,0% Never,100% Always,images\FOREHEAD_CFD_WF_200_099_N.png,0,0,0,0,2,7,197,16,,,,,,,,,,,,2023-04-07_19h44.24.213,FaceAttractiveness,2022.2.5,143.67238097695653,
treatment,0% Never,100% Always,images\FOREHEAD_CFD_BM_234_172_N.png,0,0,0,0,2,8,198,11,,,,,,,,,,,,2023-04-07_19h44.24.213,FaceAttractiveness,2022.2.5,143.67238097695653,
treatment,0% Never,100% Always,"images\ LIP_CFD_WF_002_004_N.png
",0,0,0,0,2,9,199,53,,,,,,,,,,,,2023-04-07_19h44.24.213,FaceAttractiveness,2022.2.5,143.67238097695653,
treatment,0% Never,100% Always,images\ LIP_CFD_BF_224_002_N.png,0,0,0,0,2,10,200,47,,,,,,,,,,,,2023-04-07_19h44.24.213,FaceAttractiveness,2022.2.5,143.67238097695653,
treatment,0% Never,100% Always,images\ NASALTIP_CFD_AF_245_143_N.png,0,0,0,0,2,11,201,63,,,,,,,,,,,,2023-04-07_19h44.24.213,FaceAttractiveness,2022.2.5,143.67238097695653,
treatment,0% Never,100% Always,images\ LCHEEK_CFD_WF_250_167_N.png,0,0,0,0,2,12,202,36,,,,,,,,,,,,2023-04-07_19h44.24.213,FaceAttractiveness,2022.2.5,143.67238097695653,
treatment,0% Never,100% Always,images\ LCHEEK_CFD_AF_231_357_N.png,0,0,0,0,2,13,203,23,,,,,,,,,,,,2023-04-07_19h44.24.213,FaceAttractiveness,2022.2.5,143.67238097695653,
treatment,0% Never,100% Always,images\ NASALTIP_006_M_F_N_A.png,0,0,0,0,2,14,204,57,,,,,,,,,,,,2023-04-07_19h44.24.213,FaceAttractiveness,2022.2.5,143.67238097695653,
treatment,0% Never,100% Always,images\ LCHEEK_CFD_LM_203_026_N.png,0,0,0,0,2,15,205,33,,,,,,,,,,,,2023-04-07_19h44.24.213,FaceAttractiveness,2022.2.5,143.67238097695653,
treatment,0% Never,100% Always,images\ LCHEEK_035_M_F_N_A.png,0,0,0,0,2,16,206,20,,,,,,,,,,,,2023-04-07_19h44.24.213,FaceAttractiveness,2022.2.5,143.67238097695653,
treatment,0% Never,100% Always,images\FOREHEAD_CFD_WM_212_097_N.png,0,0,0,0,2,17,207,18,,,,,,,,,,,,2023-04-07_19h44.24.213,FaceAttractiveness,2022.2.5,143.67238097695653,
treatment,0% Never,100% Always,images\ RCHEEK_CFD_LM_203_026_N.png,0,0,0,0,2,18,208,90,,,,,,,,,,,,2023-04-07_19h44.24.213,FaceAttractiveness,2022.2.5,143.67238097695653,
treatment,0% Never,100% Always,images\ RCHEEK_CFD_WF_250_167_N.png,0,0,0,0,2,19,209,93,,,,,,,,,,,,2023-04-07_19h44.24.213,FaceAttractiveness,2022.2.5,143.67238097695653,
treatment,0% Never,100% Always,images\ LCHEEK_CFD_BF_214_308_N.png,0,0,0,0,2,20,210,27,,,,,,,,,,,,2023-04-07_19h44.24.213,FaceAttractiveness,2022.2.5,143.67238097695653,
treatment,0% Never,100% Always,images\ LCHEEK_087_M_M_N_A.png,0,0,0,0,2,21,211,21,,,,,,,,,,,,2023-04-07_19h44.24.213,FaceAttractiveness,2022.2.5,143.67238097695653,
treatment,0% Never,100% Always,images\ RCHEEK_CFD_BF_214_308_N.png,0,0,0,0,2,22,212,84,,,,,,,,,,,,2023-04-07_19h44.24.213,FaceAttractiveness,2022.2.5,143.67238097695653,
treatment,0% Never,100% Always,images\ LCHEEK_CFD_AF_237_223_N.png,0,0,0,0,2,23,213,24,,,,,,,,,,,,2023-04-07_19h44.24.213,FaceAttractiveness,2022.2.5,143.67238097695653,
treatment,0% Never,100% Always,images\FOREHEAD_CFD_BF_224_002_N.png,0,0,0,0,2,24,214,9,,,,,,,,,,,,2023-04-07_19h44.24.213,FaceAttractiveness,2022.2.5,143.67238097695653,
treatment,0% Never,100% Always,"images\ NASALTIP_CFD_BM_234_172_N.png
",0,0,0,0,2,25,215,68,,,,,,,,,,,,2023-04-07_19h44.24.213,FaceAttractiveness,2022.2.5,143.67238097695653,
treatment,0% Never,100% Always,images\ LIP_CFD_BM_213_134_N.png,0,0,0,0,2,26,216,48,,,,,,,,,,,,2023-04-07_19h44.24.213,FaceAttractiveness,2022.2.5,143.67238097695653,
treatment,0% Never,100% Always,"images\ LIP_CFD_AM_233_236_N.png
",0,0,0,0,2,27,217,45,,,,,,,,,,,,2023-04-07_19h44.24.213,FaceAttractiveness,2022.2.5,143.67238097695653,
treatment,0% Never,100% Always,images\ RCHEEK_CFD_BM_213_134_N.png,0,0,0,0,2,28,218,86,,,,,,,,,,,,2023-04-07_19h44.24.213,FaceAttractiveness,2022.2.5,143.67238097695653,
treatment,0% Never,100% Always,images\ NASALTIP_CFD_AF_231_357_N.png,0,0,0,0,2,29,219,61,,,,,,,,,,,,2023-04-07_19h44.24.213,FaceAttractiveness,2022.2.5,143.67238097695653,
treatment,0% Never,100% Always,images\FOREHEAD_CFD_WF_250_167_N.png,0,0,0,0,2,30,220,17,,,,,,,,,,,,2023-04-07_19h44.24.213,FaceAttractiveness,2022.2.5,143.67238097695653,
treatment,0% Never,100% Always,images\ LIP_CFD_LM_203_026_N.png,0,0,0,0,2,31,221,52,,,,,,,,,,,,2023-04-07_19h44.24.213,FaceAttractiveness,2022.2.5,143.67238097695653,
treatment,0% Never,100% Always,"images\ NASALTIP_CFD_WF_002_004_N.png
",0,0,0,0,2,32,222,72,,,,,,,,,,,,2023-04-07_19h44.24.213,FaceAttractiveness,2022.2.5,143.67238097695653,
treatment,0% Never,100% Always,images\ LCHEEK_CFD_WF_200_099_N.png,0,0,0,0,2,33,223,35,,,,,,,,,,,,2023-04-07_19h44.24.213,FaceAttractiveness,2022.2.5,143.67238097695653,
treatment,0% Never,100% Always,images\ RCHEEK_CFD_WM_212_097_N.png,0,0,0,0,2,34,224,94,,,,,,,,,,,,2023-04-07_19h44.24.213,FaceAttractiveness,2022.2.5,143.67238097695653,
treatment,0% Never,100% Always,images\ NASALTIP_035_M_F_N_A.png,0,0,0,0,2,35,225,58,,,,,,,,,,,,2023-04-07_19h44.24.213,FaceAttractiveness,2022.2.5,143.67238097695653,
treatment,0% Never,100% Always,images\ NASALTIP_CFD_LF_224_176_N.png,0,0,0,0,2,36,226,69,,,,,,,,,,,,2023-04-07_19h44.24.213,FaceAttractiveness,2022.2.5,143.67238097695653,
treatment,0% Never,100% Always,images\FOREHEAD_CFD_LM_201_057_N.png,0,0,0,0,2,37,227,13,,,,,,,,,,,,2023-04-07_19h44.24.213,FaceAttractiveness,2022.2.5,143.67238097695653,
treatment,0% Never,100% Always,images\ LCHEEK_CFD_WM_212_097_N.png,0,0,0,0,2,38,228,37,,,,,,,,,,,,2023-04-07_19h44.24.213,FaceAttractiveness,2022.2.5,143.67238097695653,
treatment,0% Never,100% Always,images\ LIP_CFD_WF_200_099_N.png,0,0,0,0,2,39,229,54,,,,,,,,,,,,2023-04-07_19h44.24.213,FaceAttractiveness,2022.2.5,143.67238097695653,
treatment,0% Never,100% Always,images\ LCHEEK_CFD_AF_245_143_N.png,0,0,0,0,2,40,230,25,,,,,,,,,,,,2023-04-07_19h44.24.213,FaceAttractiveness,2022.2.5,143.67238097695653,
treatment,0% Never,100% Always,images\ NASALTIP_CFD_LM_201_057_N.png,0,0,0,0,2,41,231,70,,,,,,,,,,,,2023-04-07_19h44.24.213,FaceAttractiveness,2022.2.5,143.67238097695653,
treatment,0% Never,100% Always,images\ NASALTIP_CFD_WF_200_099_N.png,0,0,0,0,2,42,232,73,,,,,,,,,,,,2023-04-07_19h44.24.213,FaceAttractiveness,2022.2.5,143.67238097695653,
treatment,0% Never,100% Always,images\FOREHEAD_CFD_BM_213_134_N.png,0,0,0,0,2,43,233,10,,,,,,,,,,,,2023-04-07_19h44.24.213,FaceAttractiveness,2022.2.5,143.67238097695653,
treatment,0% Never,100% Always,images\ LIP_CFD_AF_245_143_N.png,0,0,0,0,2,44,234,44,,,,,,,,,,,,2023-04-07_19h44.24.213,FaceAttractiveness,2022.2.5,143.67238097695653,
treatment,0% Never,100% Always,images\ RCHEEK_CFD_WF_200_099_N.png,0,0,0,0,2,45,235,92,,,,,,,,,,,,2023-04-07_19h44.24.213,FaceAttractiveness,2022.2.5,143.67238097695653,
treatment,0% Never,100% Always,images\ NASALTIP_CFD_WF_250_167_N.png,0,0,0,0,2,46,236,74,,,,,,,,,,,,2023-04-07_19h44.24.213,FaceAttractiveness,2022.2.5,143.67238097695653,
treatment,0% Never,100% Always,"images\ LCHEEK_CFD_BM_234_172_N.png
",0,0,0,0,2,47,237,30,,,,,,,,,,,,2023-04-07_19h44.24.213,FaceAttractiveness,2022.2.5,143.67238097695653,
treatment,0% Never,100% Always,images\ LIP_CFD_AF_231_357_N.png,0,0,0,0,2,48,238,42,,,,,,,,,,,,2023-04-07_19h44.24.213,FaceAttractiveness,2022.2.5,143.67238097695653,
treatment,0% Never,100% Always,images\ NASALTIP_CFD_WM_212_097_N.png,0,0,0,0,2,49,239,75,,,,,,,,,,,,2023-04-07_19h44.24.213,FaceAttractiveness,2022.2.5,143.67238097695653,
treatment,0% Never,100% Always,"images\ NASALTIP_136_M_M_N_A.png
",0,0,0,0,2,50,240,60,,,,,,,,,,,,2023-04-07_19h44.24.213,FaceAttractiveness,2022.2.5,143.67238097695653,
treatment,0% Never,100% Always,images\ LCHEEK_CFD_BM_213_134_N.png,0,0,0,0,2,51,241,29,,,,,,,,,,,,2023-04-07_19h44.24.213,FaceAttractiveness,2022.2.5,143.67238097695653,
treatment,0% Never,100% Always,images\ LCHEEK_CFD_LF_224_176_N.png,0,0,0,0,2,52,242,31,,,,,,,,,,,,2023-04-07_19h44.24.213,FaceAttractiveness,2022.2.5,143.67238097695653,
treatment,0% Never,100% Always,images\FOREHEAD_CFD_WF_002_004_N.png,0,0,0,0,2,53,243,15,,,,,,,,,,,,2023-04-07_19h44.24.213,FaceAttractiveness,2022.2.5,143.67238097695653,
treatment,0% Never,100% Always,images\FOREHEAD_CFD_BF_214_308_N.png,0,0,0,0,2,54,244,8,,,,,,,,,,,,2023-04-07_19h44.24.213,FaceAttractiveness,2022.2.5,143.67238097695653,
treatment,0% Never,100% Always,"images\ LCHEEK_CFD_AM_233_236_N.png
",0,0,0,0,2,55,245,26,,,,,,,,,,,,2023-04-07_19h44.24.213,FaceAttractiveness,2022.2.5,143.67238097695653,
treatment,0% Never,100% Always,"images\ RCHEEK_136_M_M_N_A.png
",0,0,0,0,2,56,246,79,,,,,,,,,,,,2023-04-07_19h44.24.213,FaceAttractiveness,2022.2.5,143.67238097695653,
treatment,0% Never,100% Always,images\ LIP_087_M_M_N_A.png,0,0,0,0,2,57,247,40,,,,,,,,,,,,2023-04-07_19h44.24.213,FaceAttractiveness,2022.2.5,143.67238097695653,
treatment,0% Never,100% Always,"images\ LCHEEK_CFD_WF_002_004_N.png
",0,0,0,0,2,58,248,34,,,,,,,,,,,,2023-04-07_19h44.24.213,FaceAttractiveness,2022.2.5,143.67238097695653,
treatment,0% Never,100% Always,images\FOREHEAD_CFD_LM_203_026_N.png,0,0,0,0,2,59,249,14,,,,,,,,,,,,2023-04-07_19h44.24.213,FaceAttractiveness,2022.2.5,143.67238097695653,
treatment,0% Never,100% Always,images\ RCHEEK_087_M_M_N_A.png,0,0,0,0,2,60,250,78,,,,,,,,,,,,2023-04-07_19h44.24.213,FaceAttractiveness,2022.2.5,143.67238097695653,
treatment,0% Never,100% Always,images\ LIP_CFD_LF_224_176_N.png,0,0,0,0,2,61,251,50,,,,,,,,,,,,2023-04-07_19h44.24.213,FaceAttractiveness,2022.2.5,143.67238097695653,
treatment,0% Never,100% Always,images\ RCHEEK_CFD_LF_224_176_N.png,0,0,0,0,2,62,252,88,,,,,,,,,,,,2023-04-07_19h44.24.213,FaceAttractiveness,2022.2.5,143.67238097695653,
treatment,0% Never,100% Always,images\ LIP_CFD_WM_212_097_N.png,0,0,0,0,2,63,253,56,,,,,,,,,,,,2023-04-07_19h44.24.213,FaceAttractiveness,2022.2.5,143.67238097695653,
treatment,0% Never,100% Always,images\ NASALTIP_CFD_AF_237_223_N.png,0,0,0,0,2,64,254,62,,,,,,,,,,,,2023-04-07_19h44.24.213,FaceAttractiveness,2022.2.5,143.67238097695653,
treatment,0% Never,100% Always,images\FOREHEAD_CFD_AM_233_236_N.png,0,0,0,0,2,65,255,7,,,,,,,,,,,,2023-04-07_19h44.24.213,FaceAttractiveness,2022.2.5,143.67238097695653,
treatment,0% Never,100% Always,images\ NASALTIP_087_M_M_N_A.png,0,0,0,0,2,66,256,59,,,,,,,,,,,,2023-04-07_19h44.24.213,FaceAttractiveness,2022.2.5,143.67238097695653,
treatment,0% Never,100% Always,images\ LIP_CFD_WF_250_167_N.png,0,0,0,0,2,67,257,55,,,,,,,,,,,,2023-04-07_19h44.24.213,FaceAttractiveness,2022.2.5,143.67238097695653,
treatment,0% Never,100% Always,"images\ RCHEEK_CFD_AM_233_236_N.png
",0,0,0,0,2,68,258,83,,,,,,,,,,,,2023-04-07_19h44.24.213,FaceAttractiveness,2022.2.5,143.67238097695653,
treatment,0% Never,100% Always,"images\ LIP_136_M_M_N_A.png
",0,0,0,0,2,69,259,41,,,,,,,,,,,,2023-04-07_19h44.24.213,FaceAttractiveness,2022.2.5,143.67238097695653,
treatment,0% Never,100% Always,images\ LCHEEK_CFD_BF_224_002_N.png,0,0,0,0,2,70,260,28,,,,,,,,,,,,2023-04-07_19h44.24.213,FaceAttractiveness,2022.2.5,143.67238097695653,
treatment,0% Never,100% Always,images\ NASALTIP_CFD_BF_224_002_N.png,0,0,0,0,2,71,261,66,,,,,,,,,,,,2023-04-07_19h44.24.213,FaceAttractiveness,2022.2.5,143.67238097695653,
treatment,0% Never,100% Always,images\FOREHEAD_CFD_AF_245_143_N.png,0,0,0,0,2,72,262,6,,,,,,,,,,,,2023-04-07_19h44.24.213,FaceAttractiveness,2022.2.5,143.67238097695653,
treatment,0% Never,100% Always,images\ NASALTIP_CFD_LM_203_026_N.png,0,0,0,0,2,73,263,71,,,,,,,,,,,,2023-04-07_19h44.24.213,FaceAttractiveness,2022.2.5,143.67238097695653,
treatment,0% Never,100% Always,images\ LIP_CFD_AF_237_223_N.png,0,0,0,0,2,74,264,43,,,,,,,,,,,,2023-04-07_19h44.24.213,FaceAttractiveness,2022.2.5,143.67238097695653,
treatment,0% Never,100% Always,images\ RCHEEK_CFD_AF_231_357_N.png,0,0,0,0,2,75,265,80,,,,,,,,,,,,2023-04-07_19h44.24.213,FaceAttractiveness,2022.2.5,143.67238097695653,
treatment,0% Never,100% Always,images\ NASALTIP_CFD_BM_213_134_N.png,0,0,0,0,2,76,266,67,,,,,,,,,,,,2023-04-07_19h44.24.213,FaceAttractiveness,2022.2.5,143.67238097695653,
treatment,0% Never,100% Always,images\FOREHEAD_CFD_AF_231_357_N.png,0,0,0,0,2,77,267,4,,,,,,,,,,,,2023-04-07_19h44.24.213,FaceAttractiveness,2022.2.5,143.67238097695653,
treatment,0% Never,100% Always,images\ RCHEEK_035_M_F_N_A.png,0,0,0,0,2,78,268,77,,,,,,,,,,,,2023-04-07_19h44.24.213,FaceAttractiveness,2022.2.5,143.67238097695653,
treatment,0% Never,100% Always,images\ RCHEEK_CFD_AF_245_143_N.png,0,0,0,0,2,79,269,82,,,,,,,,,,,,2023-04-07_19h44.24.213,FaceAttractiveness,2022.2.5,143.67238097695653,
treatment,0% Never,100% Always,images\ LIP_006_M_F_N_A.png,0,0,0,0,2,80,270,38,,,,,,,,,,,,2023-04-07_19h44.24.213,FaceAttractiveness,2022.2.5,143.67238097695653,
treatment,0% Never,100% Always,images\FOREHEAD_006_M_F_N_A.png,0,0,0,0,2,81,271,0,,,,,,,,,,,,2023-04-07_19h44.24.213,FaceAttractiveness,2022.2.5,143.67238097695653,
treatment,0% Never,100% Always,"images\ NASALTIP_CFD_AM_233_236_N.png
",0,0,0,0,2,82,272,64,,,,,,,,,,,,2023-04-07_19h44.24.213,FaceAttractiveness,2022.2.5,143.67238097695653,
treatment,0% Never,100% Always,images\ RCHEEK_CFD_AF_237_223_N.png,0,0,0,0,2,83,273,81,,,,,,,,,,,,2023-04-07_19h44.24.213,FaceAttractiveness,2022.2.5,143.67238097695653,
treatment,0% Never,100% Always,images\ NASALTIP_CFD_BF_214_308_N.png,0,0,0,0,2,84,274,65,,,,,,,,,,,,2023-04-07_19h44.24.213,FaceAttractiveness,2022.2.5,143.67238097695653,
treatment,0% Never,100% Always,images\ LIP_035_M_F_N_A.png,0,0,0,0,2,85,275,39,,,,,,,,,,,,2023-04-07_19h44.24.213,FaceAttractiveness,2022.2.5,143.67238097695653,
treatment,0% Never,100% Always,images\ LIP_CFD_BF_214_308_N.png,0,0,0,0,2,86,276,46,,,,,,,,,,,,2023-04-07_19h44.24.213,FaceAttractiveness,2022.2.5,143.67238097695653,
treatment,0% Never,100% Always,"images\ LCHEEK_136_M_M_N_A.png
",0,0,0,0,2,87,277,22,,,,,,,,,,,,2023-04-07_19h44.24.213,FaceAttractiveness,2022.2.5,143.67238097695653,
treatment,0% Never,100% Always,images\FOREHEAD_087_M_M_N_A.png,0,0,0,0,2,88,278,2,,,,,,,,,,,,2023-04-07_19h44.24.213,FaceAttractiveness,2022.2.5,143.67238097695653,
treatment,0% Never,100% Always,images\ RCHEEK_CFD_BF_224_002_N.png,0,0,0,0,2,89,279,85,,,,,,,,,,,,2023-04-07_19h44.24.213,FaceAttractiveness,2022.2.5,143.67238097695653,
treatment,0% Never,100% Always,images\ LCHEEK_CFD_LM_201_057_N.png,0,0,0,0,2,90,280,32,,,,,,,,,,,,2023-04-07_19h44.24.213,FaceAttractiveness,2022.2.5,143.67238097695653,
treatment,0% Never,100% Always,"images\ LIP_CFD_BM_234_172_N.png
",0,0,0,0,2,91,281,49,,,,,,,,,,,,2023-04-07_19h44.24.213,FaceAttractiveness,2022.2.5,143.67238097695653,
treatment,0% Never,100% Always,images\FOREHEAD_CFD_LF_224_176_N.png,0,0,0,0,2,92,282,12,,,,,,,,,,,,2023-04-07_19h44.24.213,FaceAttractiveness,2022.2.5,143.67238097695653,
treatment,0% Never,100% Always,images\FOREHEAD_136_M_M_N_A.png,0,0,0,0,2,93,283,3,,,,,,,,,,,,2023-04-07_19h44.24.213,FaceAttractiveness,2022.2.5,143.67238097695653,
treatment,0% Never,100% Always,images\FOREHEAD_035_M_F_N_A.png,0,0,0,0,2,94,284,1,,,,,,,,,,,,2023-04-07_19h44.24.213,FaceAttractiveness,2022.2.5,143.67238097695653,
treatment,0% Never,100% Always,"images\ NASALTIP_CFD_WF_002_004_N.png
",0,0,0,0,3,0,285,72,,,,,,,,,,,,2023-04-07_19h44.24.213,FaceAttractiveness,2022.2.5,143.67238097695653,
treatment,0% Never,100% Always,images\FOREHEAD_136_M_M_N_A.png,0,0,0,0,3,1,286,3,,,,,,,,,,,,2023-04-07_19h44.24.213,FaceAttractiveness,2022.2.5,143.67238097695653,
treatment,0% Never,100% Always,images\ LIP_CFD_WF_250_167_N.png,0,0,0,0,3,2,287,55,,,,,,,,,,,,2023-04-07_19h44.24.213,FaceAttractiveness,2022.2.5,143.67238097695653,
treatment,0% Never,100% Always,images\ NASALTIP_CFD_AF_231_357_N.png,0,0,0,0,3,3,288,61,,,,,,,,,,,,2023-04-07_19h44.24.213,FaceAttractiveness,2022.2.5,143.67238097695653,
treatment,0% Never,100% Always,images\FOREHEAD_CFD_BM_234_172_N.png,0,0,0,0,3,4,289,11,,,,,,,,,,,,2023-04-07_19h44.24.213,FaceAttractiveness,2022.2.5,143.67238097695653,
treatment,0% Never,100% Always,images\FOREHEAD_CFD_BF_214_308_N.png,0,0,0,0,3,5,290,8,,,,,,,,,,,,2023-04-07_19h44.24.213,FaceAttractiveness,2022.2.5,143.67238097695653,
treatment,0% Never,100% Always,images\ LCHEEK_CFD_AF_231_357_N.png,0,0,0,0,3,6,291,23,,,,,,,,,,,,2023-04-07_19h44.24.213,FaceAttractiveness,2022.2.5,143.67238097695653,
treatment,0% Never,100% Always,images\ NASALTIP_CFD_BF_214_308_N.png,0,0,0,0,3,7,292,65,,,,,,,,,,,,2023-04-07_19h44.24.213,FaceAttractiveness,2022.2.5,143.67238097695653,
treatment,0% Never,100% Always,images\ NASALTIP_035_M_F_N_A.png,0,0,0,0,3,8,293,58,,,,,,,,,,,,2023-04-07_19h44.24.213,FaceAttractiveness,2022.2.5,143.67238097695653,
treatment,0% Never,100% Always,"images\ LIP_CFD_BM_234_172_N.png
",0,0,0,0,3,9,294,49,,,,,,,,,,,,2023-04-07_19h44.24.213,FaceAttractiveness,2022.2.5,143.67238097695653,
treatment,0% Never,100% Always,"images\ LCHEEK_CFD_AM_233_236_N.png
",0,0,0,0,3,10,295,26,,,,,,,,,,,,2023-04-07_19h44.24.213,FaceAttractiveness,2022.2.5,143.67238097695653,
treatment,0% Never,100% Always,images\ LIP_CFD_WF_200_099_N.png,0,0,0,0,3,11,296,54,,,,,,,,,,,,2023-04-07_19h44.24.213,FaceAttractiveness,2022.2.5,143.67238097695653,
treatment,0% Never,100% Always,images\ LIP_CFD_LF_224_176_N.png,0,0,0,0,3,12,297,50,,,,,,,,,,,,2023-04-07_19h44.24.213,FaceAttractiveness,2022.2.5,143.67238097695653,
treatment,0% Never,100% Always,"images\ LCHEEK_136_M_M_N_A.png
",0,0,0,0,3,13,298,22,,,,,,,,,,,,2023-04-07_19h44.24.213,FaceAttractiveness,2022.2.5,143.67238097695653,
treatment,0% Never,100% Always,images\ NASALTIP_CFD_WM_212_097_N.png,0,0,0,0,3,14,299,75,,,,,,,,,,,,2023-04-07_19h44.24.213,FaceAttractiveness,2022.2.5,143.67238097695653,
treatment,0% Never,100% Always,images\ LIP_CFD_LM_203_026_N.png,0,0,0,0,3,15,300,52,,,,,,,,,,,,2023-04-07_19h44.24.213,FaceAttractiveness,2022.2.5,143.67238097695653,
treatment,0% Never,100% Always,images\ NASALTIP_CFD_BM_213_134_N.png,0,0,0,0,3,16,301,67,,,,,,,,,,,,2023-04-07_19h44.24.213,FaceAttractiveness,2022.2.5,143.67238097695653,
treatment,0% Never,100% Always,images\ RCHEEK_087_M_M_N_A.png,0,0,0,0,3,17,302,78,,,,,,,,,,,,2023-04-07_19h44.24.213,FaceAttractiveness,2022.2.5,143.67238097695653,
treatment,0% Never,100% Always,images\ LCHEEK_087_M_M_N_A.png,0,0,0,0,3,18,303,21,,,,,,,,,,,,2023-04-07_19h44.24.213,FaceAttractiveness,2022.2.5,143.67238097695653,
treatment,0% Never,100% Always,images\ LCHEEK_CFD_AF_245_143_N.png,0,0,0,0,3,19,304,25,,,,,,,,,,,,2023-04-07_19h44.24.213,FaceAttractiveness,2022.2.5,143.67238097695653,
treatment,0% Never,100% Always,images\ NASALTIP_006_M_F_N_A.png,0,0,0,0,3,20,305,57,,,,,,,,,,,,2023-04-07_19h44.24.213,FaceAttractiveness,2022.2.5,143.67238097695653,
treatment,0% Never,100% Always,"images\ RCHEEK_CFD_BM_234_172_N.png
",0,0,0,0,3,21,306,87,,,,,,,,,,,,2023-04-07_19h44.24.213,FaceAttractiveness,2022.2.5,143.67238097695653,
treatment,0% Never,100% Always,"images\ LCHEEK_CFD_WF_002_004_N.png
",0,0,0,0,3,22,307,34,,,,,,,,,,,,2023-04-07_19h44.24.213,FaceAttractiveness,2022.2.5,143.67238097695653,
treatment,0% Never,100% Always,images\ LCHEEK_CFD_WM_212_097_N.png,0,0,0,0,3,23,308,37,,,,,,,,,,,,2023-04-07_19h44.24.213,FaceAttractiveness,2022.2.5,143.67238097695653,
treatment,0% Never,100% Always,images\ RCHEEK_CFD_WF_200_099_N.png,0,0,0,0,3,24,309,92,,,,,,,,,,,,2023-04-07_19h44.24.213,FaceAttractiveness,2022.2.5,143.67238097695653,
treatment,0% Never,100% Always,images\ LIP_006_M_F_N_A.png,0,0,0,0,3,25,310,38,,,,,,,,,,,,2023-04-07_19h44.24.213,FaceAttractiveness,2022.2.5,143.67238097695653,
treatment,0% Never,100% Always,images\ RCHEEK_CFD_WM_212_097_N.png,0,0,0,0,3,26,311,94,,,,,,,,,,,,2023-04-07_19h44.24.213,FaceAttractiveness,2022.2.5,143.67238097695653,
treatment,0% Never,100% Always,"images\ RCHEEK_CFD_WF_002_004_N.png
",0,0,0,0,3,27,312,91,,,,,,,,,,,,2023-04-07_19h44.24.213,FaceAttractiveness,2022.2.5,143.67238097695653,
treatment,0% Never,100% Always,"images\ LIP_136_M_M_N_A.png
",0,0,0,0,3,28,313,41,,,,,,,,,,,,2023-04-07_19h44.24.213,FaceAttractiveness,2022.2.5,143.67238097695653,
treatment,0% Never,100% Always,images\ RCHEEK_CFD_AF_231_357_N.png,0,0,0,0,3,29,314,80,,,,,,,,,,,,2023-04-07_19h44.24.213,FaceAttractiveness,2022.2.5,143.67238097695653,
treatment,0% Never,100% Always,images\FOREHEAD_CFD_AF_237_223_N.png,0,0,0,0,3,30,315,5,,,,,,,,,,,,2023-04-07_19h44.24.213,FaceAttractiveness,2022.2.5,143.67238097695653,
treatment,0% Never,100% Always,images\ NASALTIP_CFD_WF_200_099_N.png,0,0,0,0,3,31,316,73,,,,,,,,,,,,2023-04-07_19h44.24.213,FaceAttractiveness,2022.2.5,143.67238097695653,
treatment,0% Never,100% Always,images\ LCHEEK_CFD_LF_224_176_N.png,0,0,0,0,3,32,317,31,,,,,,,,,,,,2023-04-07_19h44.24.213,FaceAttractiveness,2022.2.5,143.67238097695653,
treatment,0% Never,100% Always,images\FOREHEAD_CFD_WF_200_099_N.png,0,0,0,0,3,33,318,16,,,,,,,,,,,,2023-04-07_19h44.24.213,FaceAttractiveness,2022.2.5,143.67238097695653,
treatment,0% Never,100% Always,images\ LCHEEK_CFD_WF_250_167_N.png,0,0,0,0,3,34,319,36,,,,,,,,,,,,2023-04-07_19h44.24.213,FaceAttractiveness,2022.2.5,143.67238097695653,
treatment,0% Never,100% Always,images\ RCHEEK_035_M_F_N_A.png,0,0,0,0,3,35,320,77,,,,,,,,,,,,2023-04-07_19h44.24.213,FaceAttractiveness,2022.2.5,143.67238097695653,
treatment,0% Never,100% Always,images\ NASALTIP_087_M_M_N_A.png,0,0,0,0,3,36,321,59,,,,,,,,,,,,2023-04-07_19h44.24.213,FaceAttractiveness,2022.2.5,143.67238097695653,
treatment,0% Never,100% Always,images\FOREHEAD_087_M_M_N_A.png,0,0,0,0,3,37,322,2,,,,,,,,,,,,2023-04-07_19h44.24.213,FaceAttractiveness,2022.2.5,143.67238097695653,
treatment,0% Never,100% Always,images\ LIP_035_M_F_N_A.png,0,0,0,0,3,38,323,39,,,,,,,,,,,,2023-04-07_19h44.24.213,FaceAttractiveness,2022.2.5,143.67238097695653,
treatment,0% Never,100% Always,images\ NASALTIP_CFD_BF_224_002_N.png,0,0,0,0,3,39,324,66,,,,,,,,,,,,2023-04-07_19h44.24.213,FaceAttractiveness,2022.2.5,143.67238097695653,
treatment,0% Never,100% Always,"images\ NASALTIP_CFD_AM_233_236_N.png
",0,0,0,0,3,40,325,64,,,,,,,,,,,,2023-04-07_19h44.24.213,FaceAttractiveness,2022.2.5,143.67238097695653,
treatment,0% Never,100% Always,"images\ NASALTIP_136_M_M_N_A.png
",0,0,0,0,3,41,326,60,,,,,,,,,,,,2023-04-07_19h44.24.213,FaceAttractiveness,2022.2.5,143.67238097695653,
treatment,0% Never,100% Always,images\ RCHEEK_CFD_LM_201_057_N.png,0,0,0,0,3,42,327,89,,,,,,,,,,,,2023-04-07_19h44.24.213,FaceAttractiveness,2022.2.5,143.67238097695653,
treatment,0% Never,100% Always,images\ LIP_CFD_AF_245_143_N.png,0,0,0,0,3,43,328,44,,,,,,,,,,,,2023-04-07_19h44.24.213,FaceAttractiveness,2022.2.5,143.67238097695653,
treatment,0% Never,100% Always,images\ LIP_CFD_BF_214_308_N.png,0,0,0,0,3,44,329,46,,,,,,,,,,,,2023-04-07_19h44.24.213,FaceAttractiveness,2022.2.5,143.67238097695653,
treatment,0% Never,100% Always,images\ NASALTIP_CFD_LM_201_057_N.png,0,0,0,0,3,45,330,70,,,,,,,,,,,,2023-04-07_19h44.24.213,FaceAttractiveness,2022.2.5,143.67238097695653,
treatment,0% Never,100% Always,images\FOREHEAD_CFD_LM_203_026_N.png,0,0,0,0,3,46,331,14,,,,,,,,,,,,2023-04-07_19h44.24.213,FaceAttractiveness,2022.2.5,143.67238097695653,
treatment,0% Never,100% Always,images\FOREHEAD_CFD_WF_002_004_N.png,0,0,0,0,3,47,332,15,,,,,,,,,,,,2023-04-07_19h44.24.213,FaceAttractiveness,2022.2.5,143.67238097695653,
treatment,0% Never,100% Always,images\FOREHEAD_CFD_BM_213_134_N.png,0,0,0,0,3,48,333,10,,,,,,,,,,,,2023-04-07_19h44.24.213,FaceAttractiveness,2022.2.5,143.67238097695653,
treatment,0% Never,100% Always,images\ LIP_087_M_M_N_A.png,0,0,0,0,3,49,334,40,,,,,,,,,,,,2023-04-07_19h44.24.213,FaceAttractiveness,2022.2.5,143.67238097695653,
treatment,0% Never,100% Always,images\FOREHEAD_CFD_BF_224_002_N.png,0,0,0,0,3,50,335,9,,,,,,,,,,,,2023-04-07_19h44.24.213,FaceAttractiveness,2022.2.5,143.67238097695653,
treatment,0% Never,100% Always,images\ RCHEEK_CFD_AF_237_223_N.png,0,0,0,0,3,51,336,81,,,,,,,,,,,,2023-04-07_19h44.24.213,FaceAttractiveness,2022.2.5,143.67238097695653,
treatment,0% Never,100% Always,images\ LCHEEK_CFD_BF_214_308_N.png,0,0,0,0,3,52,337,27,,,,,,,,,,,,2023-04-07_19h44.24.213,FaceAttractiveness,2022.2.5,143.67238097695653,
treatment,0% Never,100% Always,images\ RCHEEK_CFD_BF_214_308_N.png,0,0,0,0,3,53,338,84,,,,,,,,,,,,2023-04-07_19h44.24.213,FaceAttractiveness,2022.2.5,143.67238097695653,
treatment,0% Never,100% Always,images\FOREHEAD_035_M_F_N_A.png,0,0,0,0,3,54,339,1,,,,,,,,,,,,2023-04-07_19h44.24.213,FaceAttractiveness,2022.2.5,143.67238097695653,
treatment,0% Never,100% Always,images\ RCHEEK_CFD_BM_213_134_N.png,0,0,0,0,3,55,340,86,,,,,,,,,,,,2023-04-07_19h44.24.213,FaceAttractiveness,2022.2.5,143.67238097695653,
treatment,0% Never,100% Always,"images\ LIP_CFD_AM_233_236_N.png
",0,0,0,0,3,56,341,45,,,,,,,,,,,,2023-04-07_19h44.24.213,FaceAttractiveness,2022.2.5,143.67238097695653,
treatment,0% Never,100% Always,images\ LIP_CFD_AF_237_223_N.png,0,0,0,0,3,57,342,43,,,,,,,,,,,,2023-04-07_19h44.24.213,FaceAttractiveness,2022.2.5,143.67238097695653,
treatment,0% Never,100% Always,images\ RCHEEK_CFD_WF_250_167_N.png,0,0,0,0,3,58,343,93,,,,,,,,,,,,2023-04-07_19h44.24.213,FaceAttractiveness,2022.2.5,143.67238097695653,
treatment,0% Never,100% Always,images\ LCHEEK_035_M_F_N_A.png,0,0,0,0,3,59,344,20,,,,,,,,,,,,2023-04-07_19h44.24.213,FaceAttractiveness,2022.2.5,143.67238097695653,
treatment,0% Never,100% Always,images\ LCHEEK_CFD_LM_203_026_N.png,0,0,0,0,3,60,345,33,,,,,,,,,,,,2023-04-07_19h44.24.213,FaceAttractiveness,2022.2.5,143.67238097695653,
treatment,0% Never,100% Always,images\ NASALTIP_CFD_WF_250_167_N.png,0,0,0,0,3,61,346,74,,,,,,,,,,,,2023-04-07_19h44.24.213,FaceAttractiveness,2022.2.5,143.67238097695653,
treatment,0% Never,100% Always,images\ RCHEEK_CFD_BF_224_002_N.png,0,0,0,0,3,62,347,85,,,,,,,,,,,,2023-04-07_19h44.24.213,FaceAttractiveness,2022.2.5,143.67238097695653,
treatment,0% Never,100% Always,"images\ LIP_CFD_WF_002_004_N.png
",0,0,0,0,3,63,348,53,,,,,,,,,,,,2023-04-07_19h44.24.213,FaceAttractiveness,2022.2.5,143.67238097695653,
treatment,0% Never,100% Always,images\FOREHEAD_CFD_AM_233_236_N.png,0,0,0,0,3,64,349,7,,,,,,,,,,,,2023-04-07_19h44.24.213,FaceAttractiveness,2022.2.5,143.67238097695653,
treatment,0% Never,100% Always,images\FOREHEAD_006_M_F_N_A.png,0,0,0,0,3,65,350,0,,,,,,,,,,,,2023-04-07_19h44.24.213,FaceAttractiveness,2022.2.5,143.67238097695653,
treatment,0% Never,100% Always,images\FOREHEAD_CFD_LM_201_057_N.png,0,0,0,0,3,66,351,13,,,,,,,,,,,,2023-04-07_19h44.24.213,FaceAttractiveness,2022.2.5,143.67238097695653,
treatment,0% Never,100% Always,images\FOREHEAD_CFD_WF_250_167_N.png,0,0,0,0,3,67,352,17,,,,,,,,,,,,2023-04-07_19h44.24.213,FaceAttractiveness,2022.2.5,143.67238097695653,
treatment,0% Never,100% Always,"images\ RCHEEK_CFD_AM_233_236_N.png
",0,0,0,0,3,68,353,83,,,,,,,,,,,,2023-04-07_19h44.24.213,FaceAttractiveness,2022.2.5,143.67238097695653,
treatment,0% Never,100% Always,"images\ LCHEEK_CFD_BM_234_172_N.png
",0,0,0,0,3,69,354,30,,,,,,,,,,,,2023-04-07_19h44.24.213,FaceAttractiveness,2022.2.5,143.67238097695653,
treatment,0% Never,100% Always,images\ RCHEEK_CFD_LM_203_026_N.png,0,0,0,0,3,70,355,90,,,,,,,,,,,,2023-04-07_19h44.24.213,FaceAttractiveness,2022.2.5,143.67238097695653,
treatment,0% Never,100% Always,images\FOREHEAD_CFD_WM_212_097_N.png,0,0,0,0,3,71,356,18,,,,,,,,,,,,2023-04-07_19h44.24.213,FaceAttractiveness,2022.2.5,143.67238097695653,
treatment,0% Never,100% Always,images\ NASALTIP_CFD_LM_203_026_N.png,0,0,0,0,3,72,357,71,,,,,,,,,,,,2023-04-07_19h44.24.213,FaceAttractiveness,2022.2.5,143.67238097695653,
treatment,0% Never,100% Always,images\ NASALTIP_CFD_AF_245_143_N.png,0,0,0,0,3,73,358,63,,,,,,,,,,,,2023-04-07_19h44.24.213,FaceAttractiveness,2022.2.5,143.67238097695653,
treatment,0% Never,100% Always,images\ LIP_CFD_WM_212_097_N.png,0,0,0,0,3,74,359,56,,,,,,,,,,,,2023-04-07_19h44.24.213,FaceAttractiveness,2022.2.5,143.67238097695653,
treatment,0% Never,100% Always,"images\ NASALTIP_CFD_BM_234_172_N.png
",0,0,0,0,3,75,360,68,,,,,,,,,,,,2023-04-07_19h44.24.213,FaceAttractiveness,2022.2.5,143.67238097695653,
treatment,0% Never,100% Always,images\ NASALTIP_CFD_LF_224_176_N.png,0,0,0,0,3,76,361,69,,,,,,,,,,,,2023-04-07_19h44.24.213,FaceAttractiveness,2022.2.5,143.67238097695653,
treatment,0% Never,100% Always,images\ RCHEEK_006_M_F_N_A.png,0,0,0,0,3,77,362,76,,,,,,,,,,,,2023-04-07_19h44.24.213,FaceAttractiveness,2022.2.5,143.67238097695653,
treatment,0% Never,100% Always,images\ LCHEEK_CFD_BF_224_002_N.png,0,0,0,0,3,78,363,28,,,,,,,,,,,,2023-04-07_19h44.24.213,FaceAttractiveness,2022.2.5,143.67238097695653,
treatment,0% Never,100% Always,images\ RCHEEK_CFD_LF_224_176_N.png,0,0,0,0,3,79,364,88,,,,,,,,,,,,2023-04-07_19h44.24.213,FaceAttractiveness,2022.2.5,143.67238097695653,
treatment,0% Never,100% Always,images\ LIP_CFD_BF_224_002_N.png,0,0,0,0,3,80,365,47,,,,,,,,,,,,2023-04-07_19h44.24.213,FaceAttractiveness,2022.2.5,143.67238097695653,
treatment,0% Never,100% Always,images\FOREHEAD_CFD_AF_245_143_N.png,0,0,0,0,3,81,366,6,,,,,,,,,,,,2023-04-07_19h44.24.213,FaceAttractiveness,2022.2.5,143.67238097695653,
treatment,0% Never,100% Always,images\FOREHEAD_CFD_AF_231_357_N.png,0,0,0,0,3,82,367,4,,,,,,,,,,,,2023-04-07_19h44.24.213,FaceAttractiveness,2022.2.5,143.67238097695653,
treatment,0% Never,100% Always,images\ LIP_CFD_LM_201_057_N.png,0,0,0,0,3,83,368,51,,,,,,,,,,,,2023-04-07_19h44.24.213,FaceAttractiveness,2022.2.5,143.67238097695653,
treatment,0% Never,100% Always,images\ RCHEEK_CFD_AF_245_143_N.png,0,0,0,0,3,84,369,82,,,,,,,,,,,,2023-04-07_19h44.24.213,FaceAttractiveness,2022.2.5,143.67238097695653,
treatment,0% Never,100% Always,images\ LCHEEK_CFD_AF_237_223_N.png,0,0,0,0,3,85,370,24,,,,,,,,,,,,2023-04-07_19h44.24.213,FaceAttractiveness,2022.2.5,143.67238097695653,
treatment,0% Never,100% Always,images\ LIP_CFD_BM_213_134_N.png,0,0,0,0,3,86,371,48,,,,,,,,,,,,2023-04-07_19h44.24.213,FaceAttractiveness,2022.2.5,143.67238097695653,
treatment,0% Never,100% Always,images\ LIP_CFD_AF_231_357_N.png,0,0,0,0,3,87,372,42,,,,,,,,,,,,2023-04-07_19h44.24.213,FaceAttractiveness,2022.2.5,143.67238097695653,
treatment,0% Never,100% Always,images\ LCHEEK_006_M_F_N_A.png,0,0,0,0,3,88,373,19,,,,,,,,,,,,2023-04-07_19h44.24.213,FaceAttractiveness,2022.2.5,143.67238097695653,
treatment,0% Never,100% Always,images\ LCHEEK_CFD_WF_200_099_N.png,0,0,0,0,3,89,374,35,,,,,,,,,,,,2023-04-07_19h44.24.213,FaceAttractiveness,2022.2.5,143.67238097695653,
treatment,0% Never,100% Always,images\ LCHEEK_CFD_BM_213_134_N.png,0,0,0,0,3,90,375,29,,,,,,,,,,,,2023-04-07_19h44.24.213,FaceAttractiveness,2022.2.5,143.67238097695653,
treatment,0% Never,100% Always,images\ NASALTIP_CFD_AF_237_223_N.png,0,0,0,0,3,91,376,62,,,,,,,,,,,,2023-04-07_19h44.24.213,FaceAttractiveness,2022.2.5,143.67238097695653,
treatment,0% Never,100% Always,images\FOREHEAD_CFD_LF_224_176_N.png,0,0,0,0,3,92,377,12,,,,,,,,,,,,2023-04-07_19h44.24.213,FaceAttractiveness,2022.2.5,143.67238097695653,
treatment,0% Never,100% Always,images\ LCHEEK_CFD_LM_201_057_N.png,0,0,0,0,3,93,378,32,,,,,,,,,,,,2023-04-07_19h44.24.213,FaceAttractiveness,2022.2.5,143.67238097695653,
treatment,0% Never,100% Always,"images\ RCHEEK_136_M_M_N_A.png
",0,0,0,0,3,94,379,79,,,,,,,,,,,,2023-04-07_19h44.24.213,FaceAttractiveness,2022.2.5,143.67238097695653,
treatment,0% Never,100% Always,images\ RCHEEK_035_M_F_N_A.png,0,0,0,0,4,0,380,77,,,,,,,,,,,,2023-04-07_19h44.24.213,FaceAttractiveness,2022.2.5,143.67238097695653,
treatment,0% Never,100% Always,images\FOREHEAD_CFD_BM_213_134_N.png,0,0,0,0,4,1,381,10,,,,,,,,,,,,2023-04-07_19h44.24.213,FaceAttractiveness,2022.2.5,143.67238097695653,
treatment,0% Never,100% Always,images\FOREHEAD_CFD_BM_234_172_N.png,0,0,0,0,4,2,382,11,,,,,,,,,,,,2023-04-07_19h44.24.213,FaceAttractiveness,2022.2.5,143.67238097695653,
treatment,0% Never,100% Always,images\ LIP_035_M_F_N_A.png,0,0,0,0,4,3,383,39,,,,,,,,,,,,2023-04-07_19h44.24.213,FaceAttractiveness,2022.2.5,143.67238097695653,
treatment,0% Never,100% Always,images\ NASALTIP_CFD_LM_203_026_N.png,0,0,0,0,4,4,384,71,,,,,,,,,,,,2023-04-07_19h44.24.213,FaceAttractiveness,2022.2.5,143.67238097695653,
treatment,0% Never,100% Always,images\ LIP_CFD_BF_224_002_N.png,0,0,0,0,4,5,385,47,,,,,,,,,,,,2023-04-07_19h44.24.213,FaceAttractiveness,2022.2.5,143.67238097695653,
treatment,0% Never,100% Always,"images\ LCHEEK_136_M_M_N_A.png
",0,0,0,0,4,6,386,22,,,,,,,,,,,,2023-04-07_19h44.24.213,FaceAttractiveness,2022.2.5,143.67238097695653,
treatment,0% Never,100% Always,images\ LCHEEK_CFD_WM_212_097_N.png,0,0,0,0,4,7,387,37,,,,,,,,,,,,2023-04-07_19h44.24.213,FaceAttractiveness,2022.2.5,143.67238097695653,
treatment,0% Never,100% Always,images\ LCHEEK_CFD_LM_203_026_N.png,0,0,0,0,4,8,388,33,,,,,,,,,,,,2023-04-07_19h44.24.213,FaceAttractiveness,2022.2.5,143.67238097695653,
treatment,0% Never,100% Always,images\ NASALTIP_CFD_WF_250_167_N.png,0,0,0,0,4,9,389,74,,,,,,,,,,,,2023-04-07_19h44.24.213,FaceAttractiveness,2022.2.5,143.67238097695653,
treatment,0% Never,100% Always,images\ LIP_CFD_WF_250_167_N.png,0,0,0,0,4,10,390,55,,,,,,,,,,,,2023-04-07_19h44.24.213,FaceAttractiveness,2022.2.5,143.67238097695653,
treatment,0% Never,100% Always,images\ NASALTIP_CFD_AF_237_223_N.png,0,0,0,0,4,11,391,62,,,,,,,,,,,,2023-04-07_19h44.24.213,FaceAttractiveness,2022.2.5,143.67238097695653,
treatment,0% Never,100% Always,images\ LCHEEK_CFD_AF_237_223_N.png,0,0,0,0,4,12,392,24,,,,,,,,,,,,2023-04-07_19h44.24.213,FaceAttractiveness,2022.2.5,143.67238097695653,
treatment,0% Never,100% Always,images\ LCHEEK_CFD_BM_213_134_N.png,0,0,0,0,4,13,393,29,,,,,,,,,,,,2023-04-07_19h44.24.213,FaceAttractiveness,2022.2.5,143.67238097695653,
treatment,0% Never,100% Always,images\FOREHEAD_CFD_AF_231_357_N.png,0,0,0,0,4,14,394,4,,,,,,,,,,,,2023-04-07_19h44.24.213,FaceAttractiveness,2022.2.5,143.67238097695653,
treatment,0% Never,100% Always,images\ NASALTIP_CFD_AF_245_143_N.png,0,0,0,0,4,15,395,63,,,,,,,,,,,,2023-04-07_19h44.24.213,FaceAttractiveness,2022.2.5,143.67238097695653,
treatment,0% Never,100% Always,images\ LIP_CFD_LM_203_026_N.png,0,0,0,0,4,16,396,52,,,,,,,,,,,,2023-04-07_19h44.24.213,FaceAttractiveness,2022.2.5,143.67238097695653,
treatment,0% Never,100% Always,images\ NASALTIP_CFD_BF_224_002_N.png,0,0,0,0,4,17,397,66,,,,,,,,,,,,2023-04-07_19h44.24.213,FaceAttractiveness,2022.2.5,143.67238097695653,
treatment,0% Never,100% Always,images\ NASALTIP_CFD_LM_201_057_N.png,0,0,0,0,4,18,398,70,,,,,,,,,,,,2023-04-07_19h44.24.213,FaceAttractiveness,2022.2.5,143.67238097695653,
treatment,0% Never,100% Always,images\FOREHEAD_CFD_LM_203_026_N.png,0,0,0,0,4,19,399,14,,,,,,,,,,,,2023-04-07_19h44.24.213,FaceAttractiveness,2022.2.5,143.67238097695653,
treatment,0% Never,100% Always,images\ RCHEEK_CFD_LM_201_057_N.png,0,0,0,0,4,20,400,89,,,,,,,,,,,,2023-04-07_19h44.24.213,FaceAttractiveness,2022.2.5,143.67238097695653,
treatment,0% Never,100% Always,"images\ NASALTIP_CFD_WF_002_004_N.png
",0,0,0,0,4,21,401,72,,,,,,,,,,,,2023-04-07_19h44.24.213,FaceAttractiveness,2022.2.5,143.67238097695653,
treatment,0% Never,100% Always,images\FOREHEAD_CFD_AF_237_223_N.png,0,0,0,0,4,22,402,5,,,,,,,,,,,,2023-04-07_19h44.24.213,FaceAttractiveness,2022.2.5,143.67238097695653,
treatment,0% Never,100% Always,images\ LIP_CFD_BM_213_134_N.png,0,0,0,0,4,23,403,48,,,,,,,,,,,,2023-04-07_19h44.24.213,FaceAttractiveness,2022.2.5,143.67238097695653,
treatment,0% Never,100% Always,images\ NASALTIP_CFD_WM_212_097_N.png,0,0,0,0,4,24,404,75,,,,,,,,,,,,2023-04-07_19h44.24.213,FaceAttractiveness,2022.2.5,143.67238097695653,
treatment,0% Never,100% Always,images\ RCHEEK_CFD_AF_237_223_N.png,0,0,0,0,4,25,405,81,,,,,,,,,,,,2023-04-07_19h44.24.213,FaceAttractiveness,2022.2.5,143.67238097695653,
treatment,0% Never,100% Always,images\ LCHEEK_CFD_WF_250_167_N.png,0,0,0,0,4,26,406,36,,,,,,,,,,,,2023-04-07_19h44.24.213,FaceAttractiveness,2022.2.5,143.67238097695653,
treatment,0% Never,100% Always,images\ LIP_CFD_AF_245_143_N.png,0,0,0,0,4,27,407,44,,,,,,,,,,,,2023-04-07_19h44.24.213,FaceAttractiveness,2022.2.5,143.67238097695653,
treatment,0% Never,100% Always,images\ LIP_006_M_F_N_A.png,0,0,0,0,4,28,408,38,,,,,,,,,,,,2023-04-07_19h44.24.213,FaceAttractiveness,2022.2.5,143.67238097695653,
treatment,0% Never,100% Always,images\ LCHEEK_087_M_M_N_A.png,0,0,0,0,4,29,409,21,,,,,,,,,,,,2023-04-07_19h44.24.213,FaceAttractiveness,2022.2.5,143.67238097695653,
treatment,0% Never,100% Always,images\ LIP_CFD_WM_212_097_N.png,0,0,0,0,4,30,410,56,,,,,,,,,,,,2023-04-07_19h44.24.213,FaceAttractiveness,2022.2.5,143.67238097695653,
treatment,0% Never,100% Always,images\ LIP_CFD_LM_201_057_N.png,0,0,0,0,4,31,411,51,,,,,,,,,,,,2023-04-07_19h44.24.213,FaceAttractiveness,2022.2.5,143.67238097695653,
treatment,0% Never,100% Always,images\ RCHEEK_CFD_LM_203_026_N.png,0,0,0,0,4,32,412,90,,,,,,,,,,,,2023-04-07_19h44.24.213,FaceAttractiveness,2022.2.5,143.67238097695653,
treatment,0% Never,100% Always,images\FOREHEAD_CFD_WM_212_097_N.png,0,0,0,0,4,33,413,18,,,,,,,,,,,,2023-04-07_19h44.24.213,FaceAttractiveness,2022.2.5,143.67238097695653,
treatment,0% Never,100% Always,images\ LCHEEK_CFD_LM_201_057_N.png,0,0,0,0,4,34,414,32,,,,,,,,,,,,2023-04-07_19h44.24.213,FaceAttractiveness,2022.2.5,143.67238097695653,
treatment,0% Never,100% Always,images\ LCHEEK_006_M_F_N_A.png,0,0,0,0,4,35,415,19,,,,,,,,,,,,2023-04-07_19h44.24.213,FaceAttractiveness,2022.2.5,143.67238097695653,
treatment,0% Never,100% Always,images\ LIP_CFD_LF_224_176_N.png,0,0,0,0,4,36,416,50,,,,,,,,,,,,2023-04-07_19h44.24.213,FaceAttractiveness,2022.2.5,143.67238097695653,
treatment,0% Never,100% Always,images\FOREHEAD_035_M_F_N_A.png,0,0,0,0,4,37,417,1,,,,,,,,,,,,2023-04-07_19h44.24.213,FaceAttractiveness,2022.2.5,143.67238097695653,
treatment,0% Never,100% Always,images\ RCHEEK_087_M_M_N_A.png,0,0,0,0,4,38,418,78,,,,,,,,,,,,2023-04-07_19h44.24.213,FaceAttractiveness,2022.2.5,143.67238097695653,
treatment,0% Never,100% Always,images\ LCHEEK_CFD_AF_231_357_N.png,0,0,0,0,4,39,419,23,,,,,,,,,,,,2023-04-07_19h44.24.213,FaceAttractiveness,2022.2.5,143.67238097695653,
treatment,0% Never,100% Always,"images\ NASALTIP_CFD_BM_234_172_N.png
",0,0,0,0,4,40,420,68,,,,,,,,,,,,2023-04-07_19h44.24.213,FaceAttractiveness,2022.2.5,143.67238097695653,
treatment,0% Never,100% Always,images\ NASALTIP_CFD_BF_214_308_N.png,0,0,0,0,4,41,421,65,,,,,,,,,,,,2023-04-07_19h44.24.213,FaceAttractiveness,2022.2.5,143.67238097695653,
treatment,0% Never,100% Always,"images\ LIP_CFD_BM_234_172_N.png
",0,0,0,0,4,42,422,49,,,,,,,,,,,,2023-04-07_19h44.24.213,FaceAttractiveness,2022.2.5,143.67238097695653,
treatment,0% Never,100% Always,images\ LCHEEK_035_M_F_N_A.png,0,0,0,0,4,43,423,20,,,,,,,,,,,,2023-04-07_19h44.24.213,FaceAttractiveness,2022.2.5,143.67238097695653,
treatment,0% Never,100% Always,images\ LCHEEK_CFD_WF_200_099_N.png,0,0,0,0,4,44,424,35,,,,,,,,,,,,2023-04-07_19h44.24.213,FaceAttractiveness,2022.2.5,143.67238097695653,
treatment,0% Never,100% Always,images\ NASALTIP_035_M_F_N_A.png,0,0,0,0,4,45,425,58,,,,,,,,,,,,2023-04-07_19h44.24.213,FaceAttractiveness,2022.2.5,143.67238097695653,
treatment,0% Never,100% Always,images\ LCHEEK_CFD_BF_224_002_N.png,0,0,0,0,4,46,426,28,,,,,,,,,,,,2023-04-07_19h44.24.213,FaceAttractiveness,2022.2.5,143.67238097695653,
treatment,0% Never,100% Always,images\ RCHEEK_CFD_WF_200_099_N.png,0,0,0,0,4,47,427,92,,,,,,,,,,,,2023-04-07_19h44.24.213,FaceAttractiveness,2022.2.5,143.67238097695653,
treatment,0% Never,100% Always,images\ NASALTIP_006_M_F_N_A.png,0,0,0,0,4,48,428,57,,,,,,,,,,,,2023-04-07_19h44.24.213,FaceAttractiveness,2022.2.5,143.67238097695653,
treatment,0% Never,100% Always,images\FOREHEAD_CFD_AM_233_236_N.png,0,0,0,0,4,49,429,7,,,,,,,,,,,,2023-04-07_19h44.24.213,FaceAttractiveness,2022.2.5,143.67238097695653,
treatment,0% Never,100% Always,images\FOREHEAD_CFD_BF_214_308_N.png,0,0,0,0,4,50,430,8,,,,,,,,,,,,2023-04-07_19h44.24.213,FaceAttractiveness,2022.2.5,143.67238097695653,
treatment,0% Never,100% Always,images\ NASALTIP_CFD_WF_200_099_N.png,0,0,0,0,4,51,431,73,,,,,,,,,,,,2023-04-07_19h44.24.213,FaceAttractiveness,2022.2.5,143.67238097695653,
treatment,0% Never,100% Always,images\ LCHEEK_CFD_BF_214_308_N.png,0,0,0,0,4,52,432,27,,,,,,,,,,,,2023-04-07_19h44.24.213,FaceAttractiveness,2022.2.5,143.67238097695653,
treatment,0% Never,100% Always,images\ NASALTIP_087_M_M_N_A.png,0,0,0,0,4,53,433,59,,,,,,,,,,,,2023-04-07_19h44.24.213,FaceAttractiveness,2022.2.5,143.67238097695653,
treatment,0% Never,100% Always,"images\ LIP_136_M_M_N_A.png
",0,0,0,0,4,54,434,41,,,,,,,,,,,,2023-04-07_19h44.24.213,FaceAttractiveness,2022.2.5,143.67238097695653,
treatment,0% Never,100% Always,images\FOREHEAD_087_M_M_N_A.png,0,0,0,0,4,55,435,2,,,,,,,,,,,,2023-04-07_19h44.24.213,FaceAttractiveness,2022.2.5,143.67238097695653,
treatment,0% Never,100% Always,"images\ LCHEEK_CFD_BM_234_172_N.png
",0,0,0,0,4,56,436,30,,,,,,,,,,,,2023-04-07_19h44.24.213,FaceAttractiveness,2022.2.5,143.67238097695653,
treatment,0% Never,100% Always,images\ RCHEEK_CFD_WM_212_097_N.png,0,0,0,0,4,57,437,94,,,,,,,,,,,,2023-04-07_19h44.24.213,FaceAttractiveness,2022.2.5,143.67238097695653,
treatment,0% Never,100% Always,images\ RCHEEK_CFD_BF_214_308_N.png,0,0,0,0,4,58,438,84,,,,,,,,,,,,2023-04-07_19h44.24.213,FaceAttractiveness,2022.2.5,143.67238097695653,
treatment,0% Never,100% Always,images\ RCHEEK_CFD_WF_250_167_N.png,0,0,0,0,4,59,439,93,,,,,,,,,,,,2023-04-07_19h44.24.213,FaceAttractiveness,2022.2.5,143.67238097695653,
treatment,0% Never,100% Always,images\FOREHEAD_CFD_WF_002_004_N.png,0,0,0,0,4,60,440,15,,,,,,,,,,,,2023-04-07_19h44.24.213,FaceAttractiveness,2022.2.5,143.67238097695653,
treatment,0% Never,100% Always,"images\ NASALTIP_CFD_AM_233_236_N.png
",0,0,0,0,4,61,441,64,,,,,,,,,,,,2023-04-07_19h44.24.213,FaceAttractiveness,2022.2.5,143.67238097695653,
treatment,0% Never,100% Always,images\ LIP_CFD_AF_237_223_N.png,0,0,0,0,4,62,442,43,,,,,,,,,,,,2023-04-07_19h44.24.213,FaceAttractiveness,2022.2.5,143.67238097695653,
treatment,0% Never,100% Always,images\ RCHEEK_CFD_LF_224_176_N.png,0,0,0,0,4,63,443,88,,,,,,,,,,,,2023-04-07_19h44.24.213,FaceAttractiveness,2022.2.5,143.67238097695653,
treatment,0% Never,100% Always,images\FOREHEAD_CFD_LF_224_176_N.png,0,0,0,0,4,64,444,12,,,,,,,,,,,,2023-04-07_19h44.24.213,FaceAttractiveness,2022.2.5,143.67238097695653,
treatment,0% Never,100% Always,images\ NASALTIP_CFD_LF_224_176_N.png,0,0,0,0,4,65,445,69,,,,,,,,,,,,2023-04-07_19h44.24.213,FaceAttractiveness,2022.2.5,143.67238097695653,
treatment,0% Never,100% Always,"images\ LIP_CFD_WF_002_004_N.png
",0,0,0,0,4,66,446,53,,,,,,,,,,,,2023-04-07_19h44.24.213,FaceAttractiveness,2022.2.5,143.67238097695653,
treatment,0% Never,100% Always,images\FOREHEAD_136_M_M_N_A.png,0,0,0,0,4,67,447,3,,,,,,,,,,,,2023-04-07_19h44.24.213,FaceAttractiveness,2022.2.5,143.67238097695653,
treatment,0% Never,100% Always,images\FOREHEAD_006_M_F_N_A.png,0,0,0,0,4,68,448,0,,,,,,,,,,,,2023-04-07_19h44.24.213,FaceAttractiveness,2022.2.5,143.67238097695653,
treatment,0% Never,100% Always,"images\ LCHEEK_CFD_AM_233_236_N.png
",0,0,0,0,4,69,449,26,,,,,,,,,,,,2023-04-07_19h44.24.213,FaceAttractiveness,2022.2.5,143.67238097695653,
treatment,0% Never,100% Always,images\ LIP_CFD_AF_231_357_N.png,0,0,0,0,4,70,450,42,,,,,,,,,,,,2023-04-07_19h44.24.213,FaceAttractiveness,2022.2.5,143.67238097695653,
treatment,0% Never,100% Always,images\FOREHEAD_CFD_AF_245_143_N.png,0,0,0,0,4,71,451,6,,,,,,,,,,,,2023-04-07_19h44.24.213,FaceAttractiveness,2022.2.5,143.67238097695653,
treatment,0% Never,100% Always,images\FOREHEAD_CFD_WF_250_167_N.png,0,0,0,0,4,72,452,17,,,,,,,,,,,,2023-04-07_19h44.24.213,FaceAttractiveness,2022.2.5,143.67238097695653,
treatment,0% Never,100% Always,images\ RCHEEK_CFD_BF_224_002_N.png,0,0,0,0,4,73,453,85,,,,,,,,,,,,2023-04-07_19h44.24.213,FaceAttractiveness,2022.2.5,143.67238097695653,
treatment,0% Never,100% Always,images\ LCHEEK_CFD_LF_224_176_N.png,0,0,0,0,4,74,454,31,,,,,,,,,,,,2023-04-07_19h44.24.213,FaceAttractiveness,2022.2.5,143.67238097695653,
treatment,0% Never,100% Always,images\ LIP_CFD_BF_214_308_N.png,0,0,0,0,4,75,455,46,,,,,,,,,,,,2023-04-07_19h44.24.213,FaceAttractiveness,2022.2.5,143.67238097695653,
treatment,0% Never,100% Always,images\ RCHEEK_CFD_AF_231_357_N.png,0,0,0,0,4,76,456,80,,,,,,,,,,,,2023-04-07_19h44.24.213,FaceAttractiveness,2022.2.5,143.67238097695653,
treatment,0% Never,100% Always,images\ RCHEEK_006_M_F_N_A.png,0,0,0,0,4,77,457,76,,,,,,,,,,,,2023-04-07_19h44.24.213,FaceAttractiveness,2022.2.5,143.67238097695653,
treatment,0% Never,100% Always,images\ RCHEEK_CFD_BM_213_134_N.png,0,0,0,0,4,78,458,86,,,,,,,,,,,,2023-04-07_19h44.24.213,FaceAttractiveness,2022.2.5,143.67238097695653,
treatment,0% Never,100% Always,images\FOREHEAD_CFD_WF_200_099_N.png,0,0,0,0,4,79,459,16,,,,,,,,,,,,2023-04-07_19h44.24.213,FaceAttractiveness,2022.2.5,143.67238097695653,
treatment,0% Never,100% Always,images\FOREHEAD_CFD_LM_201_057_N.png,0,0,0,0,4,80,460,13,,,,,,,,,,,,2023-04-07_19h44.24.213,FaceAttractiveness,2022.2.5,143.67238097695653,
treatment,0% Never,100% Always,images\ LCHEEK_CFD_AF_245_143_N.png,0,0,0,0,4,81,461,25,,,,,,,,,,,,2023-04-07_19h44.24.213,FaceAttractiveness,2022.2.5,143.67238097695653,
treatment,0% Never,100% Always,"images\ LCHEEK_CFD_WF_002_004_N.png
",0,0,0,0,4,82,462,34,,,,,,,,,,,,2023-04-07_19h44.24.213,FaceAttractiveness,2022.2.5,143.67238097695653,
treatment,0% Never,100% Always,images\ LIP_087_M_M_N_A.png,0,0,0,0,4,83,463,40,,,,,,,,,,,,2023-04-07_19h44.24.213,FaceAttractiveness,2022.2.5,143.67238097695653,
treatment,0% Never,100% Always,images\ RCHEEK_CFD_AF_245_143_N.png,0,0,0,0,4,84,464,82,,,,,,,,,,,,2023-04-07_19h44.24.213,FaceAttractiveness,2022.2.5,143.67238097695653,
treatment,0% Never,100% Always,"images\ RCHEEK_CFD_BM_234_172_N.png
",0,0,0,0,4,85,465,87,,,,,,,,,,,,2023-04-07_19h44.24.213,FaceAttractiveness,2022.2.5,143.67238097695653,
treatment,0% Never,100% Always,images\ LIP_CFD_WF_200_099_N.png,0,0,0,0,4,86,466,54,,,,,,,,,,,,2023-04-07_19h44.24.213,FaceAttractiveness,2022.2.5,143.67238097695653,
treatment,0% Never,100% Always,"images\ RCHEEK_CFD_WF_002_004_N.png
",0,0,0,0,4,87,467,91,,,,,,,,,,,,2023-04-07_19h44.24.213,FaceAttractiveness,2022.2.5,143.67238097695653,
treatment,0% Never,100% Always,"images\ RCHEEK_CFD_AM_233_236_N.png
",0,0,0,0,4,88,468,83,,,,,,,,,,,,2023-04-07_19h44.24.213,FaceAttractiveness,2022.2.5,143.67238097695653,
treatment,0% Never,100% Always,"images\ RCHEEK_136_M_M_N_A.png
",0,0,0,0,4,89,469,79,,,,,,,,,,,,2023-04-07_19h44.24.213,FaceAttractiveness,2022.2.5,143.67238097695653,
treatment,0% Never,100% Always,images\ NASALTIP_CFD_BM_213_134_N.png,0,0,0,0,4,90,470,67,,,,,,,,,,,,2023-04-07_19h44.24.213,FaceAttractiveness,2022.2.5,143.67238097695653,
treatment,0% Never,100% Always,images\FOREHEAD_CFD_BF_224_002_N.png,0,0,0,0,4,91,471,9,,,,,,,,,,,,2023-04-07_19h44.24.213,FaceAttractiveness,2022.2.5,143.67238097695653,
treatment,0% Never,100% Always,"images\ NASALTIP_136_M_M_N_A.png
",0,0,0,0,4,92,472,60,,,,,,,,,,,,2023-04-07_19h44.24.213,FaceAttractiveness,2022.2.5,143.67238097695653,
treatment,0% Never,100% Always,"images\ LIP_CFD_AM_233_236_N.png
",0,0,0,0,4,93,473,45,,,,,,,,,,,,2023-04-07_19h44.24.213,FaceAttractiveness,2022.2.5,143.67238097695653,
treatment,0% Never,100% Always,images\ NASALTIP_CFD_AF_231_357_N.png,0,0,0,0,4,94,474,61,,,,,,,,,,,,2023-04-07_19h44.24.213,FaceAttractiveness,2022.2.5,143.67238097695653,
treatment,0% Never,100% Always,images\ LCHEEK_CFD_WF_200_099_N.png,0,0,0,0,5,0,475,35,,,,,,,,,,,,2023-04-07_19h44.24.213,FaceAttractiveness,2022.2.5,143.67238097695653,
treatment,0% Never,100% Always,images\ LCHEEK_CFD_BF_214_308_N.png,0,0,0,0,5,1,476,27,,,,,,,,,,,,2023-04-07_19h44.24.213,FaceAttractiveness,2022.2.5,143.67238097695653,
treatment,0% Never,100% Always,images\ LIP_CFD_BF_224_002_N.png,0,0,0,0,5,2,477,47,,,,,,,,,,,,2023-04-07_19h44.24.213,FaceAttractiveness,2022.2.5,143.67238097695653,
treatment,0% Never,100% Always,images\ LCHEEK_CFD_LM_201_057_N.png,0,0,0,0,5,3,478,32,,,,,,,,,,,,2023-04-07_19h44.24.213,FaceAttractiveness,2022.2.5,143.67238097695653,
treatment,0% Never,100% Always,images\FOREHEAD_136_M_M_N_A.png,0,0,0,0,5,4,479,3,,,,,,,,,,,,2023-04-07_19h44.24.213,FaceAttractiveness,2022.2.5,143.67238097695653,
treatment,0% Never,100% Always,"images\ NASALTIP_CFD_AM_233_236_N.png
",0,0,0,0,5,5,480,64,,,,,,,,,,,,2023-04-07_19h44.24.213,FaceAttractiveness,2022.2.5,143.67238097695653,
treatment,0% Never,100% Always,images\ NASALTIP_006_M_F_N_A.png,0,0,0,0,5,6,481,57,,,,,,,,,,,,2023-04-07_19h44.24.213,FaceAttractiveness,2022.2.5,143.67238097695653,
treatment,0% Never,100% Always,images\FOREHEAD_CFD_BM_213_134_N.png,0,0,0,0,5,7,482,10,,,,,,,,,,,,2023-04-07_19h44.24.213,FaceAttractiveness,2022.2.5,143.67238097695653,
treatment,0% Never,100% Always,images\ LIP_035_M_F_N_A.png,0,0,0,0,5,8,483,39,,,,,,,,,,,,2023-04-07_19h44.24.213,FaceAttractiveness,2022.2.5,143.67238097695653,
treatment,0% Never,100% Always,images\ RCHEEK_CFD_BF_224_002_N.png,0,0,0,0,5,9,484,85,,,,,,,,,,,,2023-04-07_19h44.24.213,FaceAttractiveness,2022.2.5,143.67238097695653,
treatment,0% Never,100% Always,images\ RCHEEK_CFD_WF_200_099_N.png,0,0,0,0,5,10,485,92,,,,,,,,,,,,2023-04-07_19h44.24.213,FaceAttractiveness,2022.2.5,143.67238097695653,
treatment,0% Never,100% Always,images\ NASALTIP_087_M_M_N_A.png,0,0,0,0,5,11,486,59,,,,,,,,,,,,2023-04-07_19h44.24.213,FaceAttractiveness,2022.2.5,143.67238097695653,
treatment,0% Never,100% Always,images\FOREHEAD_CFD_BM_234_172_N.png,0,0,0,0,5,12,487,11,,,,,,,,,,,,2023-04-07_19h44.24.213,FaceAttractiveness,2022.2.5,143.67238097695653,
treatment,0% Never,100% Always,images\ LCHEEK_CFD_AF_237_223_N.png,0,0,0,0,5,13,488,24,,,,,,,,,,,,2023-04-07_19h44.24.213,FaceAttractiveness,2022.2.5,143.67238097695653,
treatment,0% Never,100% Always,images\ NASALTIP_CFD_WF_200_099_N.png,0,0,0,0,5,14,489,73,,,,,,,,,,,,2023-04-07_19h44.24.213,FaceAttractiveness,2022.2.5,143.67238097695653,
treatment,0% Never,100% Always,images\ LIP_CFD_LM_203_026_N.png,0,0,0,0,5,15,490,52,,,,,,,,,,,,2023-04-07_19h44.24.213,FaceAttractiveness,2022.2.5,143.67238097695653,
treatment,0% Never,100% Always,images\FOREHEAD_CFD_WM_212_097_N.png,0,0,0,0,5,16,491,18,,,,,,,,,,,,2023-04-07_19h44.24.213,FaceAttractiveness,2022.2.5,143.67238097695653,
treatment,0% Never,100% Always,images\ NASALTIP_CFD_BM_213_134_N.png,0,0,0,0,5,17,492,67,,,,,,,,,,,,2023-04-07_19h44.24.213,FaceAttractiveness,2022.2.5,143.67238097695653,
treatment,0% Never,100% Always,images\ LIP_087_M_M_N_A.png,0,0,0,0,5,18,493,40,,,,,,,,,,,,2023-04-07_19h44.24.213,FaceAttractiveness,2022.2.5,143.67238097695653,
treatment,0% Never,100% Always,images\ RCHEEK_CFD_AF_237_223_N.png,0,0,0,0,5,19,494,81,,,,,,,,,,,,2023-04-07_19h44.24.213,FaceAttractiveness,2022.2.5,143.67238097695653,
treatment,0% Never,100% Always,images\FOREHEAD_CFD_BF_214_308_N.png,0,0,0,0,5,20,495,8,,,,,,,,,,,,2023-04-07_19h44.24.213,FaceAttractiveness,2022.2.5,143.67238097695653,
treatment,0% Never,100% Always,images\FOREHEAD_CFD_WF_250_167_N.png,0,0,0,0,5,21,496,17,,,,,,,,,,,,2023-04-07_19h44.24.213,FaceAttractiveness,2022.2.5,143.67238097695653,
treatment,0% Never,100% Always,"images\ LIP_136_M_M_N_A.png
",0,0,0,0,5,22,497,41,,,,,,,,,,,,2023-04-07_19h44.24.213,FaceAttractiveness,2022.2.5,143.67238097695653,
treatment,0% Never,100% Always,images\ LIP_006_M_F_N_A.png,0,0,0,0,5,23,498,38,,,,,,,,,,,,2023-04-07_19h44.24.213,FaceAttractiveness,2022.2.5,143.67238097695653,
treatment,0% Never,100% Always,images\FOREHEAD_006_M_F_N_A.png,0,0,0,0,5,24,499,0,,,,,,,,,,,,2023-04-07_19h44.24.213,FaceAttractiveness,2022.2.5,143.67238097695653,
treatment,0% Never,100% Always,images\ RCHEEK_CFD_LF_224_176_N.png,0,0,0,0,5,25,500,88,,,,,,,,,,,,2023-04-07_19h44.24.213,FaceAttractiveness,2022.2.5,143.67238097695653,
treatment,0% Never,100% Always,images\ RCHEEK_CFD_AF_231_357_N.png,0,0,0,0,5,26,501,80,,,,,,,,,,,,2023-04-07_19h44.24.213,FaceAttractiveness,2022.2.5,143.67238097695653,
treatment,0% Never,100% Always,images\FOREHEAD_CFD_LF_224_176_N.png,0,0,0,0,5,27,502,12,,,,,,,,,,,,2023-04-07_19h44.24.213,FaceAttractiveness,2022.2.5,143.67238097695653,
treatment,0% Never,100% Always,images\ LCHEEK_CFD_AF_231_357_N.png,0,0,0,0,5,28,503,23,,,,,,,,,,,,2023-04-07_19h44.24.213,FaceAttractiveness,2022.2.5,143.67238097695653,
treatment,0% Never,100% Always,images\FOREHEAD_087_M_M_N_A.png,0,0,0,0,5,29,504,2,,,,,,,,,,,,2023-04-07_19h44.24.213,FaceAttractiveness,2022.2.5,143.67238097695653,
treatment,0% Never,100% Always,images\FOREHEAD_CFD_AF_245_143_N.png,0,0,0,0,5,30,505,6,,,,,,,,,,,,2023-04-07_19h44.24.213,FaceAttractiveness,2022.2.5,143.67238097695653,
treatment,0% Never,100% Always,images\ LIP_CFD_AF_231_357_N.png,0,0,0,0,5,31,506,42,,,,,,,,,,,,2023-04-07_19h44.24.213,FaceAttractiveness,2022.2.5,143.67238097695653,
treatment,0% Never,100% Always,images\ NASALTIP_CFD_LM_201_057_N.png,0,0,0,0,5,32,507,70,,,,,,,,,,,,2023-04-07_19h44.24.213,FaceAttractiveness,2022.2.5,143.67238097695653,
treatment,0% Never,100% Always,images\ RCHEEK_CFD_LM_201_057_N.png,0,0,0,0,5,33,508,89,,,,,,,,,,,,2023-04-07_19h44.24.213,FaceAttractiveness,2022.2.5,143.67238097695653,
treatment,0% Never,100% Always,images\FOREHEAD_CFD_AF_237_223_N.png,0,0,0,0,5,34,509,5,,,,,,,,,,,,2023-04-07_19h44.24.213,FaceAttractiveness,2022.2.5,143.67238097695653,
treatment,0% Never,100% Always,images\ RCHEEK_035_M_F_N_A.png,0,0,0,0,5,35,510,77,,,,,,,,,,,,2023-04-07_19h44.24.213,FaceAttractiveness,2022.2.5,143.67238097695653,
treatment,0% Never,100% Always,"images\ LCHEEK_CFD_BM_234_172_N.png
",0,0,0,0,5,36,511,30,,,,,,,,,,,,2023-04-07_19h44.24.213,FaceAttractiveness,2022.2.5,143.67238097695653,
treatment,0% Never,100% Always,images\ LCHEEK_CFD_LF_224_176_N.png,0,0,0,0,5,37,512,31,,,,,,,,,,,,2023-04-07_19h44.24.213,FaceAttractiveness,2022.2.5,143.67238097695653,
treatment,0% Never,100% Always,"images\ RCHEEK_136_M_M_N_A.png
",0,0,0,0,5,38,513,79,,,,,,,,,,,,2023-04-07_19h44.24.213,FaceAttractiveness,2022.2.5,143.67238097695653,
treatment,0% Never,100% Always,images\ LCHEEK_006_M_F_N_A.png,0,0,0,0,5,39,514,19,,,,,,,,,,,,2023-04-07_19h44.24.213,FaceAttractiveness,2022.2.5,143.67238097695653,
treatment,0% Never,100% Always,images\ RCHEEK_CFD_BF_214_308_N.png,0,0,0,0,5,40,515,84,,,,,,,,,,,,2023-04-07_19h44.24.213,FaceAttractiveness,2022.2.5,143.67238097695653,
treatment,0% Never,100% Always,images\ LCHEEK_CFD_WM_212_097_N.png,0,0,0,0,5,41,516,37,,,,,,,,,,,,2023-04-07_19h44.24.213,FaceAttractiveness,2022.2.5,143.67238097695653,
treatment,0% Never,100% Always,images\ RCHEEK_CFD_WF_250_167_N.png,0,0,0,0,5,42,517,93,,,,,,,,,,,,2023-04-07_19h44.24.213,FaceAttractiveness,2022.2.5,143.67238097695653,
treatment,0% Never,100% Always,images\ NASALTIP_CFD_AF_245_143_N.png,0,0,0,0,5,43,518,63,,,,,,,,,,,,2023-04-07_19h44.24.213,FaceAttractiveness,2022.2.5,143.67238097695653,
treatment,0% Never,100% Always,images\FOREHEAD_CFD_LM_201_057_N.png,0,0,0,0,5,44,519,13,,,,,,,,,,,,2023-04-07_19h44.24.213,FaceAttractiveness,2022.2.5,143.67238097695653,
treatment,0% Never,100% Always,images\ LIP_CFD_AF_237_223_N.png,0,0,0,0,5,45,520,43,,,,,,,,,,,,2023-04-07_19h44.24.213,FaceAttractiveness,2022.2.5,143.67238097695653,
treatment,0% Never,100% Always,images\ LCHEEK_087_M_M_N_A.png,0,0,0,0,5,46,521,21,,,,,,,,,,,,2023-04-07_19h44.24.213,FaceAttractiveness,2022.2.5,143.67238097695653,
treatment,0% Never,100% Always,images\ NASALTIP_035_M_F_N_A.png,0,0,0,0,5,47,522,58,,,,,,,,,,,,2023-04-07_19h44.24.213,FaceAttractiveness,2022.2.5,143.67238097695653,
treatment,0% Never,100% Always,images\ LCHEEK_035_M_F_N_A.png,0,0,0,0,5,48,523,20,,,,,,,,,,,,2023-04-07_19h44.24.213,FaceAttractiveness,2022.2.5,143.67238097695653,
treatment,0% Never,100% Always,images\ NASALTIP_CFD_WF_250_167_N.png,0,0,0,0,5,49,524,74,,,,,,,,,,,,2023-04-07_19h44.24.213,FaceAttractiveness,2022.2.5,143.67238097695653,
treatment,0% Never,100% Always,images\ NASALTIP_CFD_WM_212_097_N.png,0,0,0,0,5,50,525,75,,,,,,,,,,,,2023-04-07_19h44.24.213,FaceAttractiveness,2022.2.5,143.67238097695653,
treatment,0% Never,100% Always,"images\ LCHEEK_CFD_WF_002_004_N.png
",0,0,0,0,5,51,526,34,,,,,,,,,,,,2023-04-07_19h44.24.213,FaceAttractiveness,2022.2.5,143.67238097695653,
treatment,0% Never,100% Always,"images\ RCHEEK_CFD_WF_002_004_N.png
",0,0,0,0,5,52,527,91,,,,,,,,,,,,2023-04-07_19h44.24.213,FaceAttractiveness,2022.2.5,143.67238097695653,
treatment,0% Never,100% Always,images\ NASALTIP_CFD_AF_231_357_N.png,0,0,0,0,5,53,528,61,,,,,,,,,,,,2023-04-07_19h44.24.213,FaceAttractiveness,2022.2.5,143.67238097695653,
treatment,0% Never,100% Always,images\ LIP_CFD_WF_200_099_N.png,0,0,0,0,5,54,529,54,,,,,,,,,,,,2023-04-07_19h44.24.213,FaceAttractiveness,2022.2.5,143.67238097695653,
treatment,0% Never,100% Always,"images\ NASALTIP_CFD_WF_002_004_N.png
",0,0,0,0,5,55,530,72,,,,,,,,,,,,2023-04-07_19h44.24.213,FaceAttractiveness,2022.2.5,143.67238097695653,
treatment,0% Never,100% Always,images\ NASALTIP_CFD_BF_214_308_N.png,0,0,0,0,5,56,531,65,,,,,,,,,,,,2023-04-07_19h44.24.213,FaceAttractiveness,2022.2.5,143.67238097695653,
treatment,0% Never,100% Always,images\ NASALTIP_CFD_LM_203_026_N.png,0,0,0,0,5,57,532,71,,,,,,,,,,,,2023-04-07_19h44.24.213,FaceAttractiveness,2022.2.5,143.67238097695653,
treatment,0% Never,100% Always,images\ NASALTIP_CFD_LF_224_176_N.png,0,0,0,0,5,58,533,69,,,,,,,,,,,,2023-04-07_19h44.24.213,FaceAttractiveness,2022.2.5,143.67238097695653,
treatment,0% Never,100% Always,"images\ LIP_CFD_AM_233_236_N.png
",0,0,0,0,5,59,534,45,,,,,,,,,,,,2023-04-07_19h44.24.213,FaceAttractiveness,2022.2.5,143.67238097695653,
treatment,0% Never,100% Always,images\ RCHEEK_087_M_M_N_A.png,0,0,0,0,5,60,535,78,,,,,,,,,,,,2023-04-07_19h44.24.213,FaceAttractiveness,2022.2.5,143.67238097695653,
treatment,0% Never,100% Always,images\ LIP_CFD_LF_224_176_N.png,0,0,0,0,5,61,536,50,,,,,,,,,,,,2023-04-07_19h44.24.213,FaceAttractiveness,2022.2.5,143.67238097695653,
treatment,0% Never,100% Always,images\ NASALTIP_CFD_AF_237_223_N.png,0,0,0,0,5,62,537,62,,,,,,,,,,,,2023-04-07_19h44.24.213,FaceAttractiveness,2022.2.5,143.67238097695653,
treatment,0% Never,100% Always,images\ LIP_CFD_AF_245_143_N.png,0,0,0,0,5,63,538,44,,,,,,,,,,,,2023-04-07_19h44.24.213,FaceAttractiveness,2022.2.5,143.67238097695653,
treatment,0% Never,100% Always,images\FOREHEAD_CFD_WF_200_099_N.png,0,0,0,0,5,64,539,16,,,,,,,,,,,,2023-04-07_19h44.24.213,FaceAttractiveness,2022.2.5,143.67238097695653,
treatment,0% Never,100% Always,images\ LCHEEK_CFD_BF_224_002_N.png,0,0,0,0,5,65,540,28,,,,,,,,,,,,2023-04-07_19h44.24.213,FaceAttractiveness,2022.2.5,143.67238097695653,
treatment,0% Never,100% Always,images\ LCHEEK_CFD_LM_203_026_N.png,0,0,0,0,5,66,541,33,,,,,,,,,,,,2023-04-07_19h44.24.213,FaceAttractiveness,2022.2.5,143.67238097695653,
treatment,0% Never,100% Always,images\FOREHEAD_CFD_AM_233_236_N.png,0,0,0,0,5,67,542,7,,,,,,,,,,,,2023-04-07_19h44.24.213,FaceAttractiveness,2022.2.5,143.67238097695653,
treatment,0% Never,100% Always,images\ RCHEEK_CFD_AF_245_143_N.png,0,0,0,0,5,68,543,82,,,,,,,,,,,,2023-04-07_19h44.24.213,FaceAttractiveness,2022.2.5,143.67238097695653,
treatment,0% Never,100% Always,"images\ LIP_CFD_WF_002_004_N.png
",0,0,0,0,5,69,544,53,,,,,,,,,,,,2023-04-07_19h44.24.213,FaceAttractiveness,2022.2.5,143.67238097695653,
treatment,0% Never,100% Always,"images\ LCHEEK_CFD_AM_233_236_N.png
",0,0,0,0,5,70,545,26,,,,,,,,,,,,2023-04-07_19h44.24.213,FaceAttractiveness,2022.2.5,143.67238097695653,
treatment,0% Never,100% Always,images\ LIP_CFD_WM_212_097_N.png,0,0,0,0,5,71,546,56,,,,,,,,,,,,2023-04-07_19h44.24.213,FaceAttractiveness,2022.2.5,143.67238097695653,
treatment,0% Never,100% Always,images\FOREHEAD_CFD_BF_224_002_N.png,0,0,0,0,5,72,547,9,,,,,,,,,,,,2023-04-07_19h44.24.213,FaceAttractiveness,2022.2.5,143.67238097695653,
treatment,0% Never,100% Always,"images\ RCHEEK_CFD_AM_233_236_N.png
",0,0,0,0,5,73,548,83,,,,,,,,,,,,2023-04-07_19h44.24.213,FaceAttractiveness,2022.2.5,143.67238097695653,
treatment,0% Never,100% Always,images\ RCHEEK_CFD_BM_213_134_N.png,0,0,0,0,5,74,549,86,,,,,,,,,,,,2023-04-07_19h44.24.213,FaceAttractiveness,2022.2.5,143.67238097695653,
treatment,0% Never,100% Always,images\ LIP_CFD_LM_201_057_N.png,0,0,0,0,5,75,550,51,,,,,,,,,,,,2023-04-07_19h44.24.213,FaceAttractiveness,2022.2.5,143.67238097695653,
treatment,0% Never,100% Always,"images\ NASALTIP_136_M_M_N_A.png
",0,0,0,0,5,76,551,60,,,,,,,,,,,,2023-04-07_19h44.24.213,FaceAttractiveness,2022.2.5,143.67238097695653,
treatment,0% Never,100% Always,images\ LCHEEK_CFD_WF_250_167_N.png,0,0,0,0,5,77,552,36,,,,,,,,,,,,2023-04-07_19h44.24.213,FaceAttractiveness,2022.2.5,143.67238097695653,
treatment,0% Never,100% Always,images\ RCHEEK_CFD_LM_203_026_N.png,0,0,0,0,5,78,553,90,,,,,,,,,,,,2023-04-07_19h44.24.213,FaceAttractiveness,2022.2.5,143.67238097695653,
treatment,0% Never,100% Always,images\ LIP_CFD_WF_250_167_N.png,0,0,0,0,5,79,554,55,,,,,,,,,,,,2023-04-07_19h44.24.213,FaceAttractiveness,2022.2.5,143.67238097695653,
treatment,0% Never,100% Always,"images\ LIP_CFD_BM_234_172_N.png
",0,0,0,0,5,80,555,49,,,,,,,,,,,,2023-04-07_19h44.24.213,FaceAttractiveness,2022.2.5,143.67238097695653,
treatment,0% Never,100% Always,"images\ RCHEEK_CFD_BM_234_172_N.png
",0,0,0,0,5,81,556,87,,,,,,,,,,,,2023-04-07_19h44.24.213,FaceAttractiveness,2022.2.5,143.67238097695653,
treatment,0% Never,100% Always,images\ LCHEEK_CFD_AF_245_143_N.png,0,0,0,0,5,82,557,25,,,,,,,,,,,,2023-04-07_19h44.24.213,FaceAttractiveness,2022.2.5,143.67238097695653,
treatment,0% Never,100% Always,images\ LCHEEK_CFD_BM_213_134_N.png,0,0,0,0,5,83,558,29,,,,,,,,,,,,2023-04-07_19h44.24.213,FaceAttractiveness,2022.2.5,143.67238097695653,
treatment,0% Never,100% Always,images\ NASALTIP_CFD_BF_224_002_N.png,0,0,0,0,5,84,559,66,,,,,,,,,,,,2023-04-07_19h44.24.213,FaceAttractiveness,2022.2.5,143.67238097695653,
treatment,0% Never,100% Always,images\ LIP_CFD_BM_213_134_N.png,0,0,0,0,5,85,560,48,,,,,,,,,,,,2023-04-07_19h44.24.213,FaceAttractiveness,2022.2.5,143.67238097695653,
treatment,0% Never,100% Always,images\FOREHEAD_CFD_AF_231_357_N.png,0,0,0,0,5,86,561,4,,,,,,,,,,,,2023-04-07_19h44.24.213,FaceAttractiveness,2022.2.5,143.67238097695653,
treatment,0% Never,100% Always,images\ LIP_CFD_BF_214_308_N.png,0,0,0,0,5,87,562,46,,,,,,,,,,,,2023-04-07_19h44.24.213,FaceAttractiveness,2022.2.5,143.67238097695653,
treatment,0% Never,100% Always,"images\ LCHEEK_136_M_M_N_A.png
",0,0,0,0,5,88,563,22,,,,,,,,,,,,2023-04-07_19h44.24.213,FaceAttractiveness,2022.2.5,143.67238097695653,
treatment,0% Never,100% Always,images\FOREHEAD_CFD_WF_002_004_N.png,0,0,0,0,5,89,564,15,,,,,,,,,,,,2023-04-07_19h44.24.213,FaceAttractiveness,2022.2.5,143.67238097695653,
treatment,0% Never,100% Always,"images\ NASALTIP_CFD_BM_234_172_N.png
",0,0,0,0,5,90,565,68,,,,,,,,,,,,2023-04-07_19h44.24.213,FaceAttractiveness,2022.2.5,143.67238097695653,
treatment,0% Never,100% Always,images\FOREHEAD_CFD_LM_203_026_N.png,0,0,0,0,5,91,566,14,,,,,,,,,,,,2023-04-07_19h44.24.213,FaceAttractiveness,2022.2.5,143.67238097695653,
treatment,0% Never,100% Always,images\FOREHEAD_035_M_F_N_A.png,0,0,0,0,5,92,567,1,,,,,,,,,,,,2023-04-07_19h44.24.213,FaceAttractiveness,2022.2.5,143.67238097695653,
treatment,0% Never,100% Always,images\ RCHEEK_006_M_F_N_A.png,0,0,0,0,5,93,568,76,,,,,,,,,,,,2023-04-07_19h44.24.213,FaceAttractiveness,2022.2.5,143.67238097695653,
treatment,0% Never,100% Always,images\ RCHEEK_CFD_WM_212_097_N.png,0,0,0,0,5,94,569,94,,,,,,,,,,,,2023-04-07_19h44.24.213,FaceAttractiveness,2022.2.5,143.67238097695653,
treatment,0% Never,100% Always,images\ LIP_CFD_WF_250_167_N.png,0,0,0,0,6,0,570,55,,,,,,,,,,,,2023-04-07_19h44.24.213,FaceAttractiveness,2022.2.5,143.67238097695653,
treatment,0% Never,100% Always,"images\ LCHEEK_136_M_M_N_A.png
",0,0,0,0,6,1,571,22,,,,,,,,,,,,2023-04-07_19h44.24.213,FaceAttractiveness,2022.2.5,143.67238097695653,
treatment,0% Never,100% Always,"images\ NASALTIP_CFD_BM_234_172_N.png
",0,0,0,0,6,2,572,68,,,,,,,,,,,,2023-04-07_19h44.24.213,FaceAttractiveness,2022.2.5,143.67238097695653,
treatment,0% Never,100% Always,images\FOREHEAD_CFD_BM_213_134_N.png,0,0,0,0,6,3,573,10,,,,,,,,,,,,2023-04-07_19h44.24.213,FaceAttractiveness,2022.2.5,143.67238097695653,
treatment,0% Never,100% Always,images\FOREHEAD_CFD_WM_212_097_N.png,0,0,0,0,6,4,574,18,,,,,,,,,,,,2023-04-07_19h44.24.213,FaceAttractiveness,2022.2.5,143.67238097695653,
treatment,0% Never,100% Always,images\ RCHEEK_CFD_WM_212_097_N.png,0,0,0,0,6,5,575,94,,,,,,,,,,,,2023-04-07_19h44.24.213,FaceAttractiveness,2022.2.5,143.67238097695653,
treatment,0% Never,100% Always,images\ LCHEEK_CFD_LF_224_176_N.png,0,0,0,0,6,6,576,31,,,,,,,,,,,,2023-04-07_19h44.24.213,FaceAttractiveness,2022.2.5,143.67238097695653,
treatment,0% Never,100% Always,images\FOREHEAD_CFD_BF_224_002_N.png,0,0,0,0,6,7,577,9,,,,,,,,,,,,2023-04-07_19h44.24.213,FaceAttractiveness,2022.2.5,143.67238097695653,
treatment,0% Never,100% Always,images\FOREHEAD_CFD_WF_002_004_N.png,0,0,0,0,6,8,578,15,,,,,,,,,,,,2023-04-07_19h44.24.213,FaceAttractiveness,2022.2.5,143.67238097695653,
treatment,0% Never,100% Always,images\ RCHEEK_CFD_BM_213_134_N.png,0,0,0,0,6,9,579,86,,,,,,,,,,,,2023-04-07_19h44.24.213,FaceAttractiveness,2022.2.5,143.67238097695653,
treatment,0% Never,100% Always,images\ LCHEEK_CFD_WM_212_097_N.png,0,0,0,0,6,10,580,37,,,,,,,,,,,,2023-04-07_19h44.24.213,FaceAttractiveness,2022.2.5,143.67238097695653,
treatment,0% Never,100% Always,"images\ LCHEEK_CFD_AM_233_236_N.png
",0,0,0,0,6,11,581,26,,,,,,,,,,,,2023-04-07_19h44.24.213,FaceAttractiveness,2022.2.5,143.67238097695653,
treatment,0% Never,100% Always,images\FOREHEAD_CFD_BM_234_172_N.png,0,0,0,0,6,12,582,11,,,,,,,,,,,,2023-04-07_19h44.24.213,FaceAttractiveness,2022.2.5,143.67238097695653,
treatment,0% Never,100% Always,images\ NASALTIP_CFD_AF_245_143_N.png,0,0,0,0,6,13,583,63,,,,,,,,,,,,2023-04-07_19h44.24.213,FaceAttractiveness,2022.2.5,143.67238097695653,
treatment,0% Never,100% Always,"images\ NASALTIP_CFD_AM_233_236_N.png
",0,0,0,0,6,14,584,64,,,,,,,,,,,,2023-04-07_19h44.24.213,FaceAttractiveness,2022.2.5,143.67238097695653,
treatment,0% Never,100% Always,images\ RCHEEK_CFD_AF_231_357_N.png,0,0,0,0,6,15,585,80,,,,,,,,,,,,2023-04-07_19h44.24.213,FaceAttractiveness,2022.2.5,143.67238097695653,
treatment,0% Never,100% Always,images\ RCHEEK_CFD_AF_237_223_N.png,0,0,0,0,6,16,586,81,,,,,,,,,,,,2023-04-07_19h44.24.213,FaceAttractiveness,2022.2.5,143.67238097695653,
treatment,0% Never,100% Always,images\FOREHEAD_CFD_LF_224_176_N.png,0,0,0,0,6,17,587,12,,,,,,,,,,,,2023-04-07_19h44.24.213,FaceAttractiveness,2022.2.5,143.67238097695653,
