Task,LeftLabel,RightLabel,faceImages,RatingBlockOrder.thisRepN,RatingBlockOrder.thisTrialN,RatingBlockOrder.thisN,RatingBlockOrder.thisIndex,originalFaceTrials.thisRepN,originalFaceTrials.thisTrialN,originalFaceTrials.thisN,originalFaceTrials.thisIndex,image_2.started,slider.started,text_2.started,slider_2.started,text_3.started,mouse_7.started,image_3.started,slider.response,slider.rt,slider_2.response,slider_2.rt,mouse_7.x,mouse_7.y,mouse_7.leftButton,mouse_7.midButton,mouse_7.rightButton,mouse_7.time,EndText.started,Name,Gender,Age,Ethnicity,date,expName,psychopyVersion,frameRate,
treatment,0% Never,100% Always,images\FOREHEAD_136_M_M_N_A.png,0,0,0,0,0,0,0,3,,,,,,,,,,,,,,,,,,,,,,,2023-04-07_19h10.54.195,FaceAttractiveness,2022.2.5,143.3163694789474,
treatment,0% Never,100% Always,images\ LIP_CFD_AF_231_357_N.png,0,0,0,0,0,1,1,42,,,,,,,,,,,,,,,,,,,,,,,2023-04-07_19h10.54.195,FaceAttractiveness,2022.2.5,143.3163694789474,
treatment,0% Never,100% Always,images\ LIP_CFD_AF_237_223_N.png,0,0,0,0,0,2,2,43,,,,,,,,,,,,,,,,,,,,,,,2023-04-07_19h10.54.195,FaceAttractiveness,2022.2.5,143.3163694789474,
treatment,0% Never,100% Always,images\ LCHEEK_006_M_F_N_A.png,0,0,0,0,0,3,3,19,,,,,,,,,,,,,,,,,,,,,,,2023-04-07_19h10.54.195,FaceAttractiveness,2022.2.5,143.3163694789474,
treatment,0% Never,100% Always,images\ NASALTIP_CFD_BM_213_134_N.png,0,0,0,0,0,4,4,67,,,,,,,,,,,,,,,,,,,,,,,2023-04-07_19h10.54.195,FaceAttractiveness,2022.2.5,143.3163694789474,
treatment,0% Never,100% Always,images\ NASALTIP_CFD_AF_231_357_N.png,0,0,0,0,0,5,5,61,,,,,,,,,,,,,,,,,,,,,,,2023-04-07_19h10.54.195,FaceAttractiveness,2022.2.5,143.3163694789474,
treatment,0% Never,100% Always,images\ NASALTIP_CFD_BF_214_308_N.png,0,0,0,0,0,6,6,65,,,,,,,,,,,,,,,,,,,,,,,2023-04-07_19h10.54.195,FaceAttractiveness,2022.2.5,143.3163694789474,
treatment,0% Never,100% Always,images\ LCHEEK_CFD_WM_212_097_N.png,0,0,0,0,0,7,7,37,,,,,,,,,,,,,,,,,,,,,,,2023-04-07_19h10.54.195,FaceAttractiveness,2022.2.5,143.3163694789474,
treatment,0% Never,100% Always,images\ LIP_CFD_BM_213_134_N.png,0,0,0,0,0,8,8,48,,,,,,,,,,,,,,,,,,,,,,,2023-04-07_19h10.54.195,FaceAttractiveness,2022.2.5,143.3163694789474,
treatment,0% Never,100% Always,"images\ RCHEEK_CFD_WF_002_004_N.png
",0,0,0,0,0,9,9,91,,,,,,,,,,,,,,,,,,,,,,,2023-04-07_19h10.54.195,FaceAttractiveness,2022.2.5,143.3163694789474,
treatment,0% Never,100% Always,images\ LCHEEK_CFD_LM_203_026_N.png,0,0,0,0,0,10,10,33,,,,,,,,,,,,,,,,,,,,,,,2023-04-07_19h10.54.195,FaceAttractiveness,2022.2.5,143.3163694789474,
treatment,0% Never,100% Always,images\FOREHEAD_CFD_WF_002_004_N.png,0,0,0,0,0,11,11,15,,,,,,,,,,,,,,,,,,,,,,,2023-04-07_19h10.54.195,FaceAttractiveness,2022.2.5,143.3163694789474,
treatment,0% Never,100% Always,images\FOREHEAD_CFD_AF_237_223_N.png,0,0,0,0,0,12,12,5,,,,,,,,,,,,,,,,,,,,,,,2023-04-07_19h10.54.195,FaceAttractiveness,2022.2.5,143.3163694789474,
treatment,0% Never,100% Always,images\ LIP_CFD_WM_212_097_N.png,0,0,0,0,0,13,13,56,,,,,,,,,,,,,,,,,,,,,,,2023-04-07_19h10.54.195,FaceAttractiveness,2022.2.5,143.3163694789474,
treatment,0% Never,100% Always,images\ LCHEEK_CFD_BF_214_308_N.png,0,0,0,0,0,14,14,27,,,,,,,,,,,,,,,,,,,,,,,2023-04-07_19h10.54.195,FaceAttractiveness,2022.2.5,143.3163694789474,
treatment,0% Never,100% Always,images\ NASALTIP_CFD_WM_212_097_N.png,0,0,0,0,0,15,15,75,,,,,,,,,,,,,,,,,,,,,,,2023-04-07_19h10.54.195,FaceAttractiveness,2022.2.5,143.3163694789474,
treatment,0% Never,100% Always,images\ LCHEEK_CFD_WF_200_099_N.png,0,0,0,0,0,16,16,35,,,,,,,,,,,,,,,,,,,,,,,2023-04-07_19h10.54.195,FaceAttractiveness,2022.2.5,143.3163694789474,
treatment,0% Never,100% Always,images\FOREHEAD_CFD_AF_231_357_N.png,0,0,0,0,0,17,17,4,,,,,,,,,,,,,,,,,,,,,,,2023-04-07_19h10.54.195,FaceAttractiveness,2022.2.5,143.3163694789474,
treatment,0% Never,100% Always,"images\ LCHEEK_CFD_WF_002_004_N.png
",0,0,0,0,0,18,18,34,,,,,,,,,,,,,,,,,,,,,,,2023-04-07_19h10.54.195,FaceAttractiveness,2022.2.5,143.3163694789474,
treatment,0% Never,100% Always,images\ RCHEEK_035_M_F_N_A.png,0,0,0,0,0,19,19,77,,,,,,,,,,,,,,,,,,,,,,,2023-04-07_19h10.54.195,FaceAttractiveness,2022.2.5,143.3163694789474,
treatment,0% Never,100% Always,images\ LCHEEK_087_M_M_N_A.png,0,0,0,0,0,20,20,21,,,,,,,,,,,,,,,,,,,,,,,2023-04-07_19h10.54.195,FaceAttractiveness,2022.2.5,143.3163694789474,
treatment,0% Never,100% Always,images\ NASALTIP_087_M_M_N_A.png,0,0,0,0,0,21,21,59,,,,,,,,,,,,,,,,,,,,,,,2023-04-07_19h10.54.195,FaceAttractiveness,2022.2.5,143.3163694789474,
treatment,0% Never,100% Always,images\ LIP_CFD_AF_245_143_N.png,0,0,0,0,0,22,22,44,,,,,,,,,,,,,,,,,,,,,,,2023-04-07_19h10.54.195,FaceAttractiveness,2022.2.5,143.3163694789474,
treatment,0% Never,100% Always,"images\ RCHEEK_136_M_M_N_A.png
",0,0,0,0,0,23,23,79,,,,,,,,,,,,,,,,,,,,,,,2023-04-07_19h10.54.195,FaceAttractiveness,2022.2.5,143.3163694789474,
treatment,0% Never,100% Always,images\ RCHEEK_087_M_M_N_A.png,0,0,0,0,0,24,24,78,,,,,,,,,,,,,,,,,,,,,,,2023-04-07_19h10.54.195,FaceAttractiveness,2022.2.5,143.3163694789474,
treatment,0% Never,100% Always,images\ RCHEEK_CFD_WF_250_167_N.png,0,0,0,0,0,25,25,93,,,,,,,,,,,,,,,,,,,,,,,2023-04-07_19h10.54.195,FaceAttractiveness,2022.2.5,143.3163694789474,
treatment,0% Never,100% Always,images\ RCHEEK_CFD_LM_203_026_N.png,0,0,0,0,0,26,26,90,,,,,,,,,,,,,,,,,,,,,,,2023-04-07_19h10.54.195,FaceAttractiveness,2022.2.5,143.3163694789474,
treatment,0% Never,100% Always,images\FOREHEAD_035_M_F_N_A.png,0,0,0,0,0,27,27,1,,,,,,,,,,,,,,,,,,,,,,,2023-04-07_19h10.54.195,FaceAttractiveness,2022.2.5,143.3163694789474,
treatment,0% Never,100% Always,images\ LIP_CFD_LM_201_057_N.png,0,0,0,0,0,28,28,51,,,,,,,,,,,,,,,,,,,,,,,2023-04-07_19h10.54.195,FaceAttractiveness,2022.2.5,143.3163694789474,
treatment,0% Never,100% Always,"images\ LIP_CFD_AM_233_236_N.png
",0,0,0,0,0,29,29,45,,,,,,,,,,,,,,,,,,,,,,,2023-04-07_19h10.54.195,FaceAttractiveness,2022.2.5,143.3163694789474,
treatment,0% Never,100% Always,images\FOREHEAD_CFD_WF_250_167_N.png,0,0,0,0,0,30,30,17,,,,,,,,,,,,,,,,,,,,,,,2023-04-07_19h10.54.195,FaceAttractiveness,2022.2.5,143.3163694789474,
treatment,0% Never,100% Always,images\FOREHEAD_CFD_BF_214_308_N.png,0,0,0,0,0,31,31,8,,,,,,,,,,,,,,,,,,,,,,,2023-04-07_19h10.54.195,FaceAttractiveness,2022.2.5,143.3163694789474,
treatment,0% Never,100% Always,images\ LIP_CFD_WF_200_099_N.png,0,0,0,0,0,32,32,54,,,,,,,,,,,,,,,,,,,,,,,2023-04-07_19h10.54.195,FaceAttractiveness,2022.2.5,143.3163694789474,
treatment,0% Never,100% Always,images\ NASALTIP_CFD_WF_200_099_N.png,0,0,0,0,0,33,33,73,,,,,,,,,,,,,,,,,,,,,,,2023-04-07_19h10.54.195,FaceAttractiveness,2022.2.5,143.3163694789474,
treatment,0% Never,100% Always,images\ NASALTIP_035_M_F_N_A.png,0,0,0,0,0,34,34,58,,,,,,,,,,,,,,,,,,,,,,,2023-04-07_19h10.54.195,FaceAttractiveness,2022.2.5,143.3163694789474,
treatment,0% Never,100% Always,images\ NASALTIP_CFD_LM_203_026_N.png,0,0,0,0,0,35,35,71,,,,,,,,,,,,,,,,,,,,,,,2023-04-07_19h10.54.195,FaceAttractiveness,2022.2.5,143.3163694789474,
treatment,0% Never,100% Always,"images\ NASALTIP_CFD_WF_002_004_N.png
",0,0,0,0,0,36,36,72,,,,,,,,,,,,,,,,,,,,,,,2023-04-07_19h10.54.195,FaceAttractiveness,2022.2.5,143.3163694789474,
treatment,0% Never,100% Always,images\ LIP_CFD_BF_224_002_N.png,0,0,0,0,0,37,37,47,,,,,,,,,,,,,,,,,,,,,,,2023-04-07_19h10.54.195,FaceAttractiveness,2022.2.5,143.3163694789474,
treatment,0% Never,100% Always,images\ RCHEEK_CFD_WF_200_099_N.png,0,0,0,0,0,38,38,92,,,,,,,,,,,,,,,,,,,,,,,2023-04-07_19h10.54.195,FaceAttractiveness,2022.2.5,143.3163694789474,
treatment,0% Never,100% Always,images\ RCHEEK_006_M_F_N_A.png,0,0,0,0,0,39,39,76,,,,,,,,,,,,,,,,,,,,,,,2023-04-07_19h10.54.195,FaceAttractiveness,2022.2.5,143.3163694789474,
treatment,0% Never,100% Always,"images\ LCHEEK_CFD_AM_233_236_N.png
",0,0,0,0,0,40,40,26,,,,,,,,,,,,,,,,,,,,,,,2023-04-07_19h10.54.195,FaceAttractiveness,2022.2.5,143.3163694789474,
treatment,0% Never,100% Always,images\FOREHEAD_CFD_BM_234_172_N.png,0,0,0,0,0,41,41,11,,,,,,,,,,,,,,,,,,,,,,,2023-04-07_19h10.54.195,FaceAttractiveness,2022.2.5,143.3163694789474,
treatment,0% Never,100% Always,images\ LCHEEK_CFD_WF_250_167_N.png,0,0,0,0,0,42,42,36,,,,,,,,,,,,,,,,,,,,,,,2023-04-07_19h10.54.195,FaceAttractiveness,2022.2.5,143.3163694789474,
treatment,0% Never,100% Always,images\FOREHEAD_CFD_AM_233_236_N.png,0,0,0,0,0,43,43,7,,,,,,,,,,,,,,,,,,,,,,,2023-04-07_19h10.54.195,FaceAttractiveness,2022.2.5,143.3163694789474,
treatment,0% Never,100% Always,"images\ LCHEEK_CFD_BM_234_172_N.png
",0,0,0,0,0,44,44,30,,,,,,,,,,,,,,,,,,,,,,,2023-04-07_19h10.54.195,FaceAttractiveness,2022.2.5,143.3163694789474,
treatment,0% Never,100% Always,images\ NASALTIP_CFD_LM_201_057_N.png,0,0,0,0,0,45,45,70,,,,,,,,,,,,,,,,,,,,,,,2023-04-07_19h10.54.195,FaceAttractiveness,2022.2.5,143.3163694789474,
treatment,0% Never,100% Always,images\ RCHEEK_CFD_BF_214_308_N.png,0,0,0,0,0,46,46,84,,,,,,,,,,,,,,,,,,,,,,,2023-04-07_19h10.54.195,FaceAttractiveness,2022.2.5,143.3163694789474,
treatment,0% Never,100% Always,images\ RCHEEK_CFD_AF_231_357_N.png,0,0,0,0,0,47,47,80,,,,,,,,,,,,,,,,,,,,,,,2023-04-07_19h10.54.195,FaceAttractiveness,2022.2.5,143.3163694789474,
treatment,0% Never,100% Always,"images\ RCHEEK_CFD_BM_234_172_N.png
",0,0,0,0,0,48,48,87,,,,,,,,,,,,,,,,,,,,,,,2023-04-07_19h10.54.195,FaceAttractiveness,2022.2.5,143.3163694789474,
treatment,0% Never,100% Always,"images\ NASALTIP_CFD_AM_233_236_N.png
",0,0,0,0,0,49,49,64,,,,,,,,,,,,,,,,,,,,,,,2023-04-07_19h10.54.195,FaceAttractiveness,2022.2.5,143.3163694789474,
treatment,0% Never,100% Always,images\FOREHEAD_CFD_WF_200_099_N.png,0,0,0,0,0,50,50,16,,,,,,,,,,,,,,,,,,,,,,,2023-04-07_19h10.54.195,FaceAttractiveness,2022.2.5,143.3163694789474,
treatment,0% Never,100% Always,"images\ LIP_CFD_WF_002_004_N.png
",0,0,0,0,0,51,51,53,,,,,,,,,,,,,,,,,,,,,,,2023-04-07_19h10.54.195,FaceAttractiveness,2022.2.5,143.3163694789474,
treatment,0% Never,100% Always,images\ RCHEEK_CFD_LM_201_057_N.png,0,0,0,0,0,52,52,89,,,,,,,,,,,,,,,,,,,,,,,2023-04-07_19h10.54.195,FaceAttractiveness,2022.2.5,143.3163694789474,
treatment,0% Never,100% Always,"images\ LIP_CFD_BM_234_172_N.png
",0,0,0,0,0,53,53,49,,,,,,,,,,,,,,,,,,,,,,,2023-04-07_19h10.54.195,FaceAttractiveness,2022.2.5,143.3163694789474,
treatment,0% Never,100% Always,images\FOREHEAD_006_M_F_N_A.png,0,0,0,0,0,54,54,0,,,,,,,,,,,,,,,,,,,,,,,2023-04-07_19h10.54.195,FaceAttractiveness,2022.2.5,143.3163694789474,
treatment,0% Never,100% Always,images\ LIP_006_M_F_N_A.png,0,0,0,0,0,55,55,38,,,,,,,,,,,,,,,,,,,,,,,2023-04-07_19h10.54.195,FaceAttractiveness,2022.2.5,143.3163694789474,
treatment,0% Never,100% Always,"images\ LIP_136_M_M_N_A.png
",0,0,0,0,0,56,56,41,,,,,,,,,,,,,,,,,,,,,,,2023-04-07_19h10.54.195,FaceAttractiveness,2022.2.5,143.3163694789474,
treatment,0% Never,100% Always,images\ RCHEEK_CFD_WM_212_097_N.png,0,0,0,0,0,57,57,94,,,,,,,,,,,,,,,,,,,,,,,2023-04-07_19h10.54.195,FaceAttractiveness,2022.2.5,143.3163694789474,
treatment,0% Never,100% Always,"images\ LCHEEK_136_M_M_N_A.png
",0,0,0,0,0,58,58,22,,,,,,,,,,,,,,,,,,,,,,,2023-04-07_19h10.54.195,FaceAttractiveness,2022.2.5,143.3163694789474,
treatment,0% Never,100% Always,images\ NASALTIP_CFD_AF_237_223_N.png,0,0,0,0,0,59,59,62,,,,,,,,,,,,,,,,,,,,,,,2023-04-07_19h10.54.195,FaceAttractiveness,2022.2.5,143.3163694789474,
treatment,0% Never,100% Always,images\FOREHEAD_CFD_LM_201_057_N.png,0,0,0,0,0,60,60,13,,,,,,,,,,,,,,,,,,,,,,,2023-04-07_19h10.54.195,FaceAttractiveness,2022.2.5,143.3163694789474,
treatment,0% Never,100% Always,"images\ NASALTIP_136_M_M_N_A.png
",0,0,0,0,0,61,61,60,,,,,,,,,,,,,,,,,,,,,,,2023-04-07_19h10.54.195,FaceAttractiveness,2022.2.5,143.3163694789474,
treatment,0% Never,100% Always,images\ LCHEEK_CFD_BF_224_002_N.png,0,0,0,0,0,62,62,28,,,,,,,,,,,,,,,,,,,,,,,2023-04-07_19h10.54.195,FaceAttractiveness,2022.2.5,143.3163694789474,
treatment,0% Never,100% Always,images\ LCHEEK_CFD_LF_224_176_N.png,0,0,0,0,0,63,63,31,,,,,,,,,,,,,,,,,,,,,,,2023-04-07_19h10.54.195,FaceAttractiveness,2022.2.5,143.3163694789474,
treatment,0% Never,100% Always,images\FOREHEAD_CFD_BF_224_002_N.png,0,0,0,0,0,64,64,9,,,,,,,,,,,,,,,,,,,,,,,2023-04-07_19h10.54.195,FaceAttractiveness,2022.2.5,143.3163694789474,
treatment,0% Never,100% Always,images\ LIP_035_M_F_N_A.png,0,0,0,0,0,65,65,39,,,,,,,,,,,,,,,,,,,,,,,2023-04-07_19h10.54.195,FaceAttractiveness,2022.2.5,143.3163694789474,
treatment,0% Never,100% Always,images\ LIP_CFD_LF_224_176_N.png,0,0,0,0,0,66,66,50,,,,,,,,,,,,,,,,,,,,,,,2023-04-07_19h10.54.195,FaceAttractiveness,2022.2.5,143.3163694789474,
treatment,0% Never,100% Always,images\ NASALTIP_CFD_BF_224_002_N.png,0,0,0,0,0,67,67,66,,,,,,,,,,,,,,,,,,,,,,,2023-04-07_19h10.54.195,FaceAttractiveness,2022.2.5,143.3163694789474,
treatment,0% Never,100% Always,images\ LIP_CFD_LM_203_026_N.png,0,0,0,0,0,68,68,52,,,,,,,,,,,,,,,,,,,,,,,2023-04-07_19h10.54.195,FaceAttractiveness,2022.2.5,143.3163694789474,
treatment,0% Never,100% Always,images\ RCHEEK_CFD_AF_245_143_N.png,0,0,0,0,0,69,69,82,,,,,,,,,,,,,,,,,,,,,,,2023-04-07_19h10.54.195,FaceAttractiveness,2022.2.5,143.3163694789474,
treatment,0% Never,100% Always,images\ NASALTIP_CFD_LF_224_176_N.png,0,0,0,0,0,70,70,69,,,,,,,,,,,,,,,,,,,,,,,2023-04-07_19h10.54.195,FaceAttractiveness,2022.2.5,143.3163694789474,
treatment,0% Never,100% Always,images\ LCHEEK_CFD_AF_231_357_N.png,0,0,0,0,0,71,71,23,,,,,,,,,,,,,,,,,,,,,,,2023-04-07_19h10.54.195,FaceAttractiveness,2022.2.5,143.3163694789474,
treatment,0% Never,100% Always,images\ LCHEEK_035_M_F_N_A.png,0,0,0,0,0,72,72,20,,,,,,,,,,,,,,,,,,,,,,,2023-04-07_19h10.54.195,FaceAttractiveness,2022.2.5,143.3163694789474,
treatment,0% Never,100% Always,images\FOREHEAD_CFD_WM_212_097_N.png,0,0,0,0,0,73,73,18,,,,,,,,,,,,,,,,,,,,,,,2023-04-07_19h10.54.195,FaceAttractiveness,2022.2.5,143.3163694789474,
treatment,0% Never,100% Always,images\ LCHEEK_CFD_LM_201_057_N.png,0,0,0,0,0,74,74,32,,,,,,,,,,,,,,,,,,,,,,,2023-04-07_19h10.54.195,FaceAttractiveness,2022.2.5,143.3163694789474,
treatment,0% Never,100% Always,images\ LIP_CFD_WF_250_167_N.png,0,0,0,0,0,75,75,55,,,,,,,,,,,,,,,,,,,,,,,2023-04-07_19h10.54.195,FaceAttractiveness,2022.2.5,143.3163694789474,
treatment,0% Never,100% Always,images\ RCHEEK_CFD_BM_213_134_N.png,0,0,0,0,0,76,76,86,,,,,,,,,,,,,,,,,,,,,,,2023-04-07_19h10.54.195,FaceAttractiveness,2022.2.5,143.3163694789474,
treatment,0% Never,100% Always,images\FOREHEAD_087_M_M_N_A.png,0,0,0,0,0,77,77,2,,,,,,,,,,,,,,,,,,,,,,,2023-04-07_19h10.54.195,FaceAttractiveness,2022.2.5,143.3163694789474,
treatment,0% Never,100% Always,images\ LIP_CFD_BF_214_308_N.png,0,0,0,0,0,78,78,46,,,,,,,,,,,,,,,,,,,,,,,2023-04-07_19h10.54.195,FaceAttractiveness,2022.2.5,143.3163694789474,
treatment,0% Never,100% Always,images\ NASALTIP_CFD_WF_250_167_N.png,0,0,0,0,0,79,79,74,,,,,,,,,,,,,,,,,,,,,,,2023-04-07_19h10.54.195,FaceAttractiveness,2022.2.5,143.3163694789474,
treatment,0% Never,100% Always,images\ LCHEEK_CFD_AF_237_223_N.png,0,0,0,0,0,80,80,24,,,,,,,,,,,,,,,,,,,,,,,2023-04-07_19h10.54.195,FaceAttractiveness,2022.2.5,143.3163694789474,
treatment,0% Never,100% Always,images\FOREHEAD_CFD_LF_224_176_N.png,0,0,0,0,0,81,81,12,,,,,,,,,,,,,,,,,,,,,,,2023-04-07_19h10.54.195,FaceAttractiveness,2022.2.5,143.3163694789474,
treatment,0% Never,100% Always,images\ RCHEEK_CFD_AF_237_223_N.png,0,0,0,0,0,82,82,81,,,,,,,,,,,,,,,,,,,,,,,2023-04-07_19h10.54.195,FaceAttractiveness,2022.2.5,143.3163694789474,
treatment,0% Never,100% Always,images\ LCHEEK_CFD_AF_245_143_N.png,0,0,0,0,0,83,83,25,,,,,,,,,,,,,,,,,,,,,,,2023-04-07_19h10.54.195,FaceAttractiveness,2022.2.5,143.3163694789474,
treatment,0% Never,100% Always,images\ RCHEEK_CFD_LF_224_176_N.png,0,0,0,0,0,84,84,88,,,,,,,,,,,,,,,,,,,,,,,2023-04-07_19h10.54.195,FaceAttractiveness,2022.2.5,143.3163694789474,
treatment,0% Never,100% Always,images\ RCHEEK_CFD_BF_224_002_N.png,0,0,0,0,0,85,85,85,,,,,,,,,,,,,,,,,,,,,,,2023-04-07_19h10.54.195,FaceAttractiveness,2022.2.5,143.3163694789474,
treatment,0% Never,100% Always,images\FOREHEAD_CFD_AF_245_143_N.png,0,0,0,0,0,86,86,6,,,,,,,,,,,,,,,,,,,,,,,2023-04-07_19h10.54.195,FaceAttractiveness,2022.2.5,143.3163694789474,
treatment,0% Never,100% Always,images\ LIP_087_M_M_N_A.png,0,0,0,0,0,87,87,40,,,,,,,,,,,,,,,,,,,,,,,2023-04-07_19h10.54.195,FaceAttractiveness,2022.2.5,143.3163694789474,
treatment,0% Never,100% Always,images\FOREHEAD_CFD_LM_203_026_N.png,0,0,0,0,0,88,88,14,,,,,,,,,,,,,,,,,,,,,,,2023-04-07_19h10.54.195,FaceAttractiveness,2022.2.5,143.3163694789474,
treatment,0% Never,100% Always,images\FOREHEAD_CFD_BM_213_134_N.png,0,0,0,0,0,89,89,10,,,,,,,,,,,,,,,,,,,,,,,2023-04-07_19h10.54.195,FaceAttractiveness,2022.2.5,143.3163694789474,
treatment,0% Never,100% Always,"images\ NASALTIP_CFD_BM_234_172_N.png
",0,0,0,0,0,90,90,68,,,,,,,,,,,,,,,,,,,,,,,2023-04-07_19h10.54.195,FaceAttractiveness,2022.2.5,143.3163694789474,
treatment,0% Never,100% Always,"images\ RCHEEK_CFD_AM_233_236_N.png
",0,0,0,0,0,91,91,83,,,,,,,,,,,,,,,,,,,,,,,2023-04-07_19h10.54.195,FaceAttractiveness,2022.2.5,143.3163694789474,
treatment,0% Never,100% Always,images\ NASALTIP_006_M_F_N_A.png,0,0,0,0,0,92,92,57,,,,,,,,,,,,,,,,,,,,,,,2023-04-07_19h10.54.195,FaceAttractiveness,2022.2.5,143.3163694789474,
treatment,0% Never,100% Always,images\ LCHEEK_CFD_BM_213_134_N.png,0,0,0,0,0,93,93,29,,,,,,,,,,,,,,,,,,,,,,,2023-04-07_19h10.54.195,FaceAttractiveness,2022.2.5,143.3163694789474,
treatment,0% Never,100% Always,images\ NASALTIP_CFD_AF_245_143_N.png,0,0,0,0,0,94,94,63,,,,,,,,,,,,,,,,,,,,,,,2023-04-07_19h10.54.195,FaceAttractiveness,2022.2.5,143.3163694789474,
treatment,0% Never,100% Always,images\ LIP_CFD_LF_224_176_N.png,0,0,0,0,1,0,95,50,,,,,,,,,,,,,,,,,,,,,,,2023-04-07_19h10.54.195,FaceAttractiveness,2022.2.5,143.3163694789474,
treatment,0% Never,100% Always,images\ LIP_CFD_LM_203_026_N.png,0,0,0,0,1,1,96,52,,,,,,,,,,,,,,,,,,,,,,,2023-04-07_19h10.54.195,FaceAttractiveness,2022.2.5,143.3163694789474,
treatment,0% Never,100% Always,images\ LCHEEK_CFD_WM_212_097_N.png,0,0,0,0,1,2,97,37,,,,,,,,,,,,,,,,,,,,,,,2023-04-07_19h10.54.195,FaceAttractiveness,2022.2.5,143.3163694789474,
treatment,0% Never,100% Always,"images\ LIP_CFD_WF_002_004_N.png
",0,0,0,0,1,3,98,53,,,,,,,,,,,,,,,,,,,,,,,2023-04-07_19h10.54.195,FaceAttractiveness,2022.2.5,143.3163694789474,
treatment,0% Never,100% Always,images\ NASALTIP_CFD_WF_200_099_N.png,0,0,0,0,1,4,99,73,,,,,,,,,,,,,,,,,,,,,,,2023-04-07_19h10.54.195,FaceAttractiveness,2022.2.5,143.3163694789474,
treatment,0% Never,100% Always,images\FOREHEAD_CFD_LM_203_026_N.png,0,0,0,0,1,5,100,14,,,,,,,,,,,,,,,,,,,,,,,2023-04-07_19h10.54.195,FaceAttractiveness,2022.2.5,143.3163694789474,
treatment,0% Never,100% Always,images\FOREHEAD_CFD_AM_233_236_N.png,0,0,0,0,1,6,101,7,,,,,,,,,,,,,,,,,,,,,,,2023-04-07_19h10.54.195,FaceAttractiveness,2022.2.5,143.3163694789474,
treatment,0% Never,100% Always,"images\ LIP_CFD_BM_234_172_N.png
",0,0,0,0,1,7,102,49,,,,,,,,,,,,,,,,,,,,,,,2023-04-07_19h10.54.195,FaceAttractiveness,2022.2.5,143.3163694789474,
treatment,0% Never,100% Always,images\ RCHEEK_006_M_F_N_A.png,0,0,0,0,1,8,103,76,,,,,,,,,,,,,,,,,,,,,,,2023-04-07_19h10.54.195,FaceAttractiveness,2022.2.5,143.3163694789474,
treatment,0% Never,100% Always,"images\ RCHEEK_CFD_WF_002_004_N.png
",0,0,0,0,1,9,104,91,,,,,,,,,,,,,,,,,,,,,,,2023-04-07_19h10.54.195,FaceAttractiveness,2022.2.5,143.3163694789474,
treatment,0% Never,100% Always,images\ RCHEEK_087_M_M_N_A.png,0,0,0,0,1,10,105,78,,,,,,,,,,,,,,,,,,,,,,,2023-04-07_19h10.54.195,FaceAttractiveness,2022.2.5,143.3163694789474,
treatment,0% Never,100% Always,images\ NASALTIP_CFD_LF_224_176_N.png,0,0,0,0,1,11,106,69,,,,,,,,,,,,,,,,,,,,,,,2023-04-07_19h10.54.195,FaceAttractiveness,2022.2.5,143.3163694789474,
treatment,0% Never,100% Always,images\ LIP_006_M_F_N_A.png,0,0,0,0,1,12,107,38,,,,,,,,,,,,,,,,,,,,,,,2023-04-07_19h10.54.195,FaceAttractiveness,2022.2.5,143.3163694789474,
treatment,0% Never,100% Always,images\FOREHEAD_CFD_WF_250_167_N.png,0,0,0,0,1,13,108,17,,,,,,,,,,,,,,,,,,,,,,,2023-04-07_19h10.54.195,FaceAttractiveness,2022.2.5,143.3163694789474,
treatment,0% Never,100% Always,images\ LCHEEK_CFD_AF_231_357_N.png,0,0,0,0,1,14,109,23,,,,,,,,,,,,,,,,,,,,,,,2023-04-07_19h10.54.195,FaceAttractiveness,2022.2.5,143.3163694789474,
treatment,0% Never,100% Always,images\ RCHEEK_CFD_AF_237_223_N.png,0,0,0,0,1,15,110,81,,,,,,,,,,,,,,,,,,,,,,,2023-04-07_19h10.54.195,FaceAttractiveness,2022.2.5,143.3163694789474,
treatment,0% Never,100% Always,images\ NASALTIP_006_M_F_N_A.png,0,0,0,0,1,16,111,57,,,,,,,,,,,,,,,,,,,,,,,2023-04-07_19h10.54.195,FaceAttractiveness,2022.2.5,143.3163694789474,
treatment,0% Never,100% Always,images\FOREHEAD_CFD_BM_234_172_N.png,0,0,0,0,1,17,112,11,,,,,,,,,,,,,,,,,,,,,,,2023-04-07_19h10.54.195,FaceAttractiveness,2022.2.5,143.3163694789474,
treatment,0% Never,100% Always,images\ NASALTIP_CFD_BF_214_308_N.png,0,0,0,0,1,18,113,65,,,,,,,,,,,,,,,,,,,,,,,2023-04-07_19h10.54.195,FaceAttractiveness,2022.2.5,143.3163694789474,
treatment,0% Never,100% Always,images\ NASALTIP_CFD_WM_212_097_N.png,0,0,0,0,1,19,114,75,,,,,,,,,,,,,,,,,,,,,,,2023-04-07_19h10.54.195,FaceAttractiveness,2022.2.5,143.3163694789474,
treatment,0% Never,100% Always,"images\ LCHEEK_CFD_WF_002_004_N.png
",0,0,0,0,1,20,115,34,,,,,,,,,,,,,,,,,,,,,,,2023-04-07_19h10.54.195,FaceAttractiveness,2022.2.5,143.3163694789474,
treatment,0% Never,100% Always,images\ LCHEEK_CFD_LM_201_057_N.png,0,0,0,0,1,21,116,32,,,,,,,,,,,,,,,,,,,,,,,2023-04-07_19h10.54.195,FaceAttractiveness,2022.2.5,143.3163694789474,
treatment,0% Never,100% Always,images\ NASALTIP_CFD_LM_203_026_N.png,0,0,0,0,1,22,117,71,,,,,,,,,,,,,,,,,,,,,,,2023-04-07_19h10.54.195,FaceAttractiveness,2022.2.5,143.3163694789474,
treatment,0% Never,100% Always,images\ LIP_CFD_LM_201_057_N.png,0,0,0,0,1,23,118,51,,,,,,,,,,,,,,,,,,,,,,,2023-04-07_19h10.54.195,FaceAttractiveness,2022.2.5,143.3163694789474,
treatment,0% Never,100% Always,images\ LIP_CFD_BF_224_002_N.png,0,0,0,0,1,24,119,47,,,,,,,,,,,,,,,,,,,,,,,2023-04-07_19h10.54.195,FaceAttractiveness,2022.2.5,143.3163694789474,
treatment,0% Never,100% Always,"images\ RCHEEK_136_M_M_N_A.png
",0,0,0,0,1,25,120,79,,,,,,,,,,,,,,,,,,,,,,,2023-04-07_19h10.54.195,FaceAttractiveness,2022.2.5,143.3163694789474,
treatment,0% Never,100% Always,images\ NASALTIP_035_M_F_N_A.png,0,0,0,0,1,26,121,58,,,,,,,,,,,,,,,,,,,,,,,2023-04-07_19h10.54.195,FaceAttractiveness,2022.2.5,143.3163694789474,
treatment,0% Never,100% Always,images\ LCHEEK_CFD_LF_224_176_N.png,0,0,0,0,1,27,122,31,,,,,,,,,,,,,,,,,,,,,,,2023-04-07_19h10.54.195,FaceAttractiveness,2022.2.5,143.3163694789474,
treatment,0% Never,100% Always,images\ RCHEEK_CFD_AF_231_357_N.png,0,0,0,0,1,28,123,80,,,,,,,,,,,,,,,,,,,,,,,2023-04-07_19h10.54.195,FaceAttractiveness,2022.2.5,143.3163694789474,
treatment,0% Never,100% Always,images\ LIP_CFD_AF_237_223_N.png,0,0,0,0,1,29,124,43,,,,,,,,,,,,,,,,,,,,,,,2023-04-07_19h10.54.195,FaceAttractiveness,2022.2.5,143.3163694789474,
treatment,0% Never,100% Always,images\FOREHEAD_CFD_BM_213_134_N.png,0,0,0,0,1,30,125,10,,,,,,,,,,,,,,,,,,,,,,,2023-04-07_19h10.54.195,FaceAttractiveness,2022.2.5,143.3163694789474,
treatment,0% Never,100% Always,images\ RCHEEK_CFD_BF_224_002_N.png,0,0,0,0,1,31,126,85,,,,,,,,,,,,,,,,,,,,,,,2023-04-07_19h10.54.195,FaceAttractiveness,2022.2.5,143.3163694789474,
treatment,0% Never,100% Always,images\ LCHEEK_CFD_BF_224_002_N.png,0,0,0,0,1,32,127,28,,,,,,,,,,,,,,,,,,,,,,,2023-04-07_19h10.54.195,FaceAttractiveness,2022.2.5,143.3163694789474,
treatment,0% Never,100% Always,"images\ RCHEEK_CFD_BM_234_172_N.png
",0,0,0,0,1,33,128,87,,,,,,,,,,,,,,,,,,,,,,,2023-04-07_19h10.54.195,FaceAttractiveness,2022.2.5,143.3163694789474,
treatment,0% Never,100% Always,images\FOREHEAD_035_M_F_N_A.png,0,0,0,0,1,34,129,1,,,,,,,,,,,,,,,,,,,,,,,2023-04-07_19h10.54.195,FaceAttractiveness,2022.2.5,143.3163694789474,
treatment,0% Never,100% Always,images\FOREHEAD_CFD_BF_224_002_N.png,0,0,0,0,1,35,130,9,,,,,,,,,,,,,,,,,,,,,,,2023-04-07_19h10.54.195,FaceAttractiveness,2022.2.5,143.3163694789474,
treatment,0% Never,100% Always,images\FOREHEAD_006_M_F_N_A.png,0,0,0,0,1,36,131,0,,,,,,,,,,,,,,,,,,,,,,,2023-04-07_19h10.54.195,FaceAttractiveness,2022.2.5,143.3163694789474,
treatment,0% Never,100% Always,images\FOREHEAD_CFD_WM_212_097_N.png,0,0,0,0,1,37,132,18,,,,,,,,,,,,,,,,,,,,,,,2023-04-07_19h10.54.195,FaceAttractiveness,2022.2.5,143.3163694789474,
treatment,0% Never,100% Always,images\ LCHEEK_CFD_BM_213_134_N.png,0,0,0,0,1,38,133,29,,,,,,,,,,,,,,,,,,,,,,,2023-04-07_19h10.54.195,FaceAttractiveness,2022.2.5,143.3163694789474,
treatment,0% Never,100% Always,images\ LCHEEK_CFD_BF_214_308_N.png,0,0,0,0,1,39,134,27,,,,,,,,,,,,,,,,,,,,,,,2023-04-07_19h10.54.195,FaceAttractiveness,2022.2.5,143.3163694789474,
treatment,0% Never,100% Always,images\ RCHEEK_CFD_WF_250_167_N.png,0,0,0,0,1,40,135,93,,,,,,,,,,,,,,,,,,,,,,,2023-04-07_19h10.54.195,FaceAttractiveness,2022.2.5,143.3163694789474,
treatment,0% Never,100% Always,images\ RCHEEK_CFD_BM_213_134_N.png,0,0,0,0,1,41,136,86,,,,,,,,,,,,,,,,,,,,,,,2023-04-07_19h10.54.195,FaceAttractiveness,2022.2.5,143.3163694789474,
treatment,0% Never,100% Always,"images\ LIP_136_M_M_N_A.png
",0,0,0,0,1,42,137,41,,,,,,,,,,,,,,,,,,,,,,,2023-04-07_19h10.54.195,FaceAttractiveness,2022.2.5,143.3163694789474,
treatment,0% Never,100% Always,images\ LIP_CFD_AF_245_143_N.png,0,0,0,0,1,43,138,44,,,,,,,,,,,,,,,,,,,,,,,2023-04-07_19h10.54.195,FaceAttractiveness,2022.2.5,143.3163694789474,
treatment,0% Never,100% Always,images\ LIP_CFD_AF_231_357_N.png,0,0,0,0,1,44,139,42,,,,,,,,,,,,,,,,,,,,,,,2023-04-07_19h10.54.195,FaceAttractiveness,2022.2.5,143.3163694789474,
treatment,0% Never,100% Always,images\ RCHEEK_CFD_WM_212_097_N.png,0,0,0,0,1,45,140,94,,,,,,,,,,,,,,,,,,,,,,,2023-04-07_19h10.54.195,FaceAttractiveness,2022.2.5,143.3163694789474,
treatment,0% Never,100% Always,images\ LIP_CFD_WM_212_097_N.png,0,0,0,0,1,46,141,56,,,,,,,,,,,,,,,,,,,,,,,2023-04-07_19h10.54.195,FaceAttractiveness,2022.2.5,143.3163694789474,
treatment,0% Never,100% Always,images\ NASALTIP_CFD_AF_231_357_N.png,0,0,0,0,1,47,142,61,,,,,,,,,,,,,,,,,,,,,,,2023-04-07_19h10.54.195,FaceAttractiveness,2022.2.5,143.3163694789474,
treatment,0% Never,100% Always,images\ NASALTIP_CFD_BF_224_002_N.png,0,0,0,0,1,48,143,66,,,,,,,,,,,,,,,,,,,,,,,2023-04-07_19h10.54.195,FaceAttractiveness,2022.2.5,143.3163694789474,
treatment,0% Never,100% Always,images\ LIP_CFD_WF_200_099_N.png,0,0,0,0,1,49,144,54,,,,,,,,,,,,,,,,,,,,,,,2023-04-07_19h10.54.195,FaceAttractiveness,2022.2.5,143.3163694789474,
treatment,0% Never,100% Always,images\ RCHEEK_CFD_LF_224_176_N.png,0,0,0,0,1,50,145,88,,,,,,,,,,,,,,,,,,,,,,,2023-04-07_19h10.54.195,FaceAttractiveness,2022.2.5,143.3163694789474,
treatment,0% Never,100% Always,images\ RCHEEK_CFD_LM_201_057_N.png,0,0,0,0,1,51,146,89,,,,,,,,,,,,,,,,,,,,,,,2023-04-07_19h10.54.195,FaceAttractiveness,2022.2.5,143.3163694789474,
treatment,0% Never,100% Always,"images\ LCHEEK_CFD_AM_233_236_N.png
",0,0,0,0,1,52,147,26,,,,,,,,,,,,,,,,,,,,,,,2023-04-07_19h10.54.195,FaceAttractiveness,2022.2.5,143.3163694789474,
treatment,0% Never,100% Always,images\FOREHEAD_CFD_LM_201_057_N.png,0,0,0,0,1,53,148,13,,,,,,,,,,,,,,,,,,,,,,,2023-04-07_19h10.54.195,FaceAttractiveness,2022.2.5,143.3163694789474,
treatment,0% Never,100% Always,"images\ NASALTIP_CFD_BM_234_172_N.png
",0,0,0,0,1,54,149,68,,,,,,,,,,,,,,,,,,,,,,,2023-04-07_19h10.54.195,FaceAttractiveness,2022.2.5,143.3163694789474,
treatment,0% Never,100% Always,images\FOREHEAD_CFD_WF_200_099_N.png,0,0,0,0,1,55,150,16,,,,,,,,,,,,,,,,,,,,,,,2023-04-07_19h10.54.195,FaceAttractiveness,2022.2.5,143.3163694789474,
treatment,0% Never,100% Always,images\FOREHEAD_CFD_AF_231_357_N.png,0,0,0,0,1,56,151,4,,,,,,,,,,,,,,,,,,,,,,,2023-04-07_19h10.54.195,FaceAttractiveness,2022.2.5,143.3163694789474,
treatment,0% Never,100% Always,"images\ NASALTIP_CFD_WF_002_004_N.png
",0,0,0,0,1,57,152,72,,,,,,,,,,,,,,,,,,,,,,,2023-04-07_19h10.54.195,FaceAttractiveness,2022.2.5,143.3163694789474,
treatment,0% Never,100% Always,images\ NASALTIP_087_M_M_N_A.png,0,0,0,0,1,58,153,59,,,,,,,,,,,,,,,,,,,,,,,2023-04-07_19h10.54.195,FaceAttractiveness,2022.2.5,143.3163694789474,
treatment,0% Never,100% Always,images\ RCHEEK_CFD_AF_245_143_N.png,0,0,0,0,1,59,154,82,,,,,,,,,,,,,,,,,,,,,,,2023-04-07_19h10.54.195,FaceAttractiveness,2022.2.5,143.3163694789474,
treatment,0% Never,100% Always,images\FOREHEAD_136_M_M_N_A.png,0,0,0,0,1,60,155,3,,,,,,,,,,,,,,,,,,,,,,,2023-04-07_19h10.54.195,FaceAttractiveness,2022.2.5,143.3163694789474,
treatment,0% Never,100% Always,"images\ LIP_CFD_AM_233_236_N.png
",0,0,0,0,1,61,156,45,,,,,,,,,,,,,,,,,,,,,,,2023-04-07_19h10.54.195,FaceAttractiveness,2022.2.5,143.3163694789474,
treatment,0% Never,100% Always,images\ LIP_087_M_M_N_A.png,0,0,0,0,1,62,157,40,,,,,,,,,,,,,,,,,,,,,,,2023-04-07_19h10.54.195,FaceAttractiveness,2022.2.5,143.3163694789474,
treatment,0% Never,100% Always,images\FOREHEAD_CFD_BF_214_308_N.png,0,0,0,0,1,63,158,8,,,,,,,,,,,,,,,,,,,,,,,2023-04-07_19h10.54.195,FaceAttractiveness,2022.2.5,143.3163694789474,
treatment,0% Never,100% Always,images\ LCHEEK_CFD_WF_200_099_N.png,0,0,0,0,1,64,159,35,,,,,,,,,,,,,,,,,,,,,,,2023-04-07_19h10.54.195,FaceAttractiveness,2022.2.5,143.3163694789474,
treatment,0% Never,100% Always,images\ LCHEEK_CFD_LM_203_026_N.png,0,0,0,0,1,65,160,33,,,,,,,,,,,,,,,,,,,,,,,2023-04-07_19h10.54.195,FaceAttractiveness,2022.2.5,143.3163694789474,
treatment,0% Never,100% Always,images\FOREHEAD_CFD_LF_224_176_N.png,0,0,0,0,1,66,161,12,,,,,,,,,,,,,,,,,,,,,,,2023-04-07_19h10.54.195,FaceAttractiveness,2022.2.5,143.3163694789474,
treatment,0% Never,100% Always,"images\ LCHEEK_136_M_M_N_A.png
",0,0,0,0,1,67,162,22,,,,,,,,,,,,,,,,,,,,,,,2023-04-07_19h10.54.195,FaceAttractiveness,2022.2.5,143.3163694789474,
treatment,0% Never,100% Always,images\ LCHEEK_CFD_AF_237_223_N.png,0,0,0,0,1,68,163,24,,,,,,,,,,,,,,,,,,,,,,,2023-04-07_19h10.54.195,FaceAttractiveness,2022.2.5,143.3163694789474,
treatment,0% Never,100% Always,images\ LIP_035_M_F_N_A.png,0,0,0,0,1,69,164,39,,,,,,,,,,,,,,,,,,,,,,,2023-04-07_19h10.54.195,FaceAttractiveness,2022.2.5,143.3163694789474,
treatment,0% Never,100% Always,images\ LCHEEK_CFD_AF_245_143_N.png,0,0,0,0,1,70,165,25,,,,,,,,,,,,,,,,,,,,,,,2023-04-07_19h10.54.195,FaceAttractiveness,2022.2.5,143.3163694789474,
treatment,0% Never,100% Always,"images\ LCHEEK_CFD_BM_234_172_N.png
",0,0,0,0,1,71,166,30,,,,,,,,,,,,,,,,,,,,,,,2023-04-07_19h10.54.195,FaceAttractiveness,2022.2.5,143.3163694789474,
treatment,0% Never,100% Always,"images\ RCHEEK_CFD_AM_233_236_N.png
",0,0,0,0,1,72,167,83,,,,,,,,,,,,,,,,,,,,,,,2023-04-07_19h10.54.195,FaceAttractiveness,2022.2.5,143.3163694789474,
treatment,0% Never,100% Always,images\ RCHEEK_CFD_BF_214_308_N.png,0,0,0,0,1,73,168,84,,,,,,,,,,,,,,,,,,,,,,,2023-04-07_19h10.54.195,FaceAttractiveness,2022.2.5,143.3163694789474,
treatment,0% Never,100% Always,"images\ NASALTIP_CFD_AM_233_236_N.png
",0,0,0,0,1,74,169,64,,,,,,,,,,,,,,,,,,,,,,,2023-04-07_19h10.54.195,FaceAttractiveness,2022.2.5,143.3163694789474,
treatment,0% Never,100% Always,images\FOREHEAD_CFD_AF_245_143_N.png,0,0,0,0,1,75,170,6,,,,,,,,,,,,,,,,,,,,,,,2023-04-07_19h10.54.195,FaceAttractiveness,2022.2.5,143.3163694789474,
treatment,0% Never,100% Always,images\ LCHEEK_006_M_F_N_A.png,0,0,0,0,1,76,171,19,,,,,,,,,,,,,,,,,,,,,,,2023-04-07_19h10.54.195,FaceAttractiveness,2022.2.5,143.3163694789474,
treatment,0% Never,100% Always,"images\ NASALTIP_136_M_M_N_A.png
",0,0,0,0,1,77,172,60,,,,,,,,,,,,,,,,,,,,,,,2023-04-07_19h10.54.195,FaceAttractiveness,2022.2.5,143.3163694789474,
treatment,0% Never,100% Always,images\ LIP_CFD_WF_250_167_N.png,0,0,0,0,1,78,173,55,,,,,,,,,,,,,,,,,,,,,,,2023-04-07_19h10.54.195,FaceAttractiveness,2022.2.5,143.3163694789474,
treatment,0% Never,100% Always,images\ RCHEEK_035_M_F_N_A.png,0,0,0,0,1,79,174,77,,,,,,,,,,,,,,,,,,,,,,,2023-04-07_19h10.54.195,FaceAttractiveness,2022.2.5,143.3163694789474,
treatment,0% Never,100% Always,images\ LCHEEK_035_M_F_N_A.png,0,0,0,0,1,80,175,20,,,,,,,,,,,,,,,,,,,,,,,2023-04-07_19h10.54.195,FaceAttractiveness,2022.2.5,143.3163694789474,
treatment,0% Never,100% Always,images\FOREHEAD_087_M_M_N_A.png,0,0,0,0,1,81,176,2,,,,,,,,,,,,,,,,,,,,,,,2023-04-07_19h10.54.195,FaceAttractiveness,2022.2.5,143.3163694789474,
treatment,0% Never,100% Always,images\ RCHEEK_CFD_WF_200_099_N.png,0,0,0,0,1,82,177,92,,,,,,,,,,,,,,,,,,,,,,,2023-04-07_19h10.54.195,FaceAttractiveness,2022.2.5,143.3163694789474,
treatment,0% Never,100% Always,images\ LIP_CFD_BF_214_308_N.png,0,0,0,0,1,83,178,46,,,,,,,,,,,,,,,,,,,,,,,2023-04-07_19h10.54.195,FaceAttractiveness,2022.2.5,143.3163694789474,
treatment,0% Never,100% Always,images\ NASALTIP_CFD_LM_201_057_N.png,0,0,0,0,1,84,179,70,,,,,,,,,,,,,,,,,,,,,,,2023-04-07_19h10.54.195,FaceAttractiveness,2022.2.5,143.3163694789474,
treatment,0% Never,100% Always,images\ LCHEEK_CFD_WF_250_167_N.png,0,0,0,0,1,85,180,36,,,,,,,,,,,,,,,,,,,,,,,2023-04-07_19h10.54.195,FaceAttractiveness,2022.2.5,143.3163694789474,
treatment,0% Never,100% Always,images\ NASALTIP_CFD_AF_245_143_N.png,0,0,0,0,1,86,181,63,,,,,,,,,,,,,,,,,,,,,,,2023-04-07_19h10.54.195,FaceAttractiveness,2022.2.5,143.3163694789474,
treatment,0% Never,100% Always,images\ LCHEEK_087_M_M_N_A.png,0,0,0,0,1,87,182,21,,,,,,,,,,,,,,,,,,,,,,,2023-04-07_19h10.54.195,FaceAttractiveness,2022.2.5,143.3163694789474,
treatment,0% Never,100% Always,images\FOREHEAD_CFD_WF_002_004_N.png,0,0,0,0,1,88,183,15,,,,,,,,,,,,,,,,,,,,,,,2023-04-07_19h10.54.195,FaceAttractiveness,2022.2.5,143.3163694789474,
treatment,0% Never,100% Always,images\ NASALTIP_CFD_WF_250_167_N.png,0,0,0,0,1,89,184,74,,,,,,,,,,,,,,,,,,,,,,,2023-04-07_19h10.54.195,FaceAttractiveness,2022.2.5,143.3163694789474,
treatment,0% Never,100% Always,images\FOREHEAD_CFD_AF_237_223_N.png,0,0,0,0,1,90,185,5,,,,,,,,,,,,,,,,,,,,,,,2023-04-07_19h10.54.195,FaceAttractiveness,2022.2.5,143.3163694789474,
treatment,0% Never,100% Always,images\ LIP_CFD_BM_213_134_N.png,0,0,0,0,1,91,186,48,,,,,,,,,,,,,,,,,,,,,,,2023-04-07_19h10.54.195,FaceAttractiveness,2022.2.5,143.3163694789474,
treatment,0% Never,100% Always,images\ NASALTIP_CFD_BM_213_134_N.png,0,0,0,0,1,92,187,67,,,,,,,,,,,,,,,,,,,,,,,2023-04-07_19h10.54.195,FaceAttractiveness,2022.2.5,143.3163694789474,
treatment,0% Never,100% Always,images\ RCHEEK_CFD_LM_203_026_N.png,0,0,0,0,1,93,188,90,,,,,,,,,,,,,,,,,,,,,,,2023-04-07_19h10.54.195,FaceAttractiveness,2022.2.5,143.3163694789474,
treatment,0% Never,100% Always,images\ NASALTIP_CFD_AF_237_223_N.png,0,0,0,0,1,94,189,62,,,,,,,,,,,,,,,,,,,,,,,2023-04-07_19h10.54.195,FaceAttractiveness,2022.2.5,143.3163694789474,
treatment,0% Never,100% Always,images\FOREHEAD_CFD_AF_231_357_N.png,0,0,0,0,2,0,190,4,,,,,,,,,,,,,,,,,,,,,,,2023-04-07_19h10.54.195,FaceAttractiveness,2022.2.5,143.3163694789474,
treatment,0% Never,100% Always,images\ LIP_CFD_LF_224_176_N.png,0,0,0,0,2,1,191,50,,,,,,,,,,,,,,,,,,,,,,,2023-04-07_19h10.54.195,FaceAttractiveness,2022.2.5,143.3163694789474,
treatment,0% Never,100% Always,"images\ RCHEEK_CFD_BM_234_172_N.png
",0,0,0,0,2,2,192,87,,,,,,,,,,,,,,,,,,,,,,,2023-04-07_19h10.54.195,FaceAttractiveness,2022.2.5,143.3163694789474,
treatment,0% Never,100% Always,images\ NASALTIP_CFD_LM_201_057_N.png,0,0,0,0,2,3,193,70,,,,,,,,,,,,,,,,,,,,,,,2023-04-07_19h10.54.195,FaceAttractiveness,2022.2.5,143.3163694789474,
treatment,0% Never,100% Always,images\ NASALTIP_CFD_WF_250_167_N.png,0,0,0,0,2,4,194,74,,,,,,,,,,,,,,,,,,,,,,,2023-04-07_19h10.54.195,FaceAttractiveness,2022.2.5,143.3163694789474,
treatment,0% Never,100% Always,images\ LIP_CFD_AF_237_223_N.png,0,0,0,0,2,5,195,43,,,,,,,,,,,,,,,,,,,,,,,2023-04-07_19h10.54.195,FaceAttractiveness,2022.2.5,143.3163694789474,
treatment,0% Never,100% Always,images\ NASALTIP_CFD_LF_224_176_N.png,0,0,0,0,2,6,196,69,,,,,,,,,,,,,,,,,,,,,,,2023-04-07_19h10.54.195,FaceAttractiveness,2022.2.5,143.3163694789474,
treatment,0% Never,100% Always,images\FOREHEAD_CFD_BM_213_134_N.png,0,0,0,0,2,7,197,10,,,,,,,,,,,,,,,,,,,,,,,2023-04-07_19h10.54.195,FaceAttractiveness,2022.2.5,143.3163694789474,
treatment,0% Never,100% Always,images\ NASALTIP_CFD_AF_245_143_N.png,0,0,0,0,2,8,198,63,,,,,,,,,,,,,,,,,,,,,,,2023-04-07_19h10.54.195,FaceAttractiveness,2022.2.5,143.3163694789474,
treatment,0% Never,100% Always,images\ RCHEEK_CFD_WM_212_097_N.png,0,0,0,0,2,9,199,94,,,,,,,,,,,,,,,,,,,,,,,2023-04-07_19h10.54.195,FaceAttractiveness,2022.2.5,143.3163694789474,
treatment,0% Never,100% Always,images\ LCHEEK_035_M_F_N_A.png,0,0,0,0,2,10,200,20,,,,,,,,,,,,,,,,,,,,,,,2023-04-07_19h10.54.195,FaceAttractiveness,2022.2.5,143.3163694789474,
treatment,0% Never,100% Always,images\ LIP_CFD_BM_213_134_N.png,0,0,0,0,2,11,201,48,,,,,,,,,,,,,,,,,,,,,,,2023-04-07_19h10.54.195,FaceAttractiveness,2022.2.5,143.3163694789474,
treatment,0% Never,100% Always,images\ LCHEEK_CFD_AF_231_357_N.png,0,0,0,0,2,12,202,23,,,,,,,,,,,,,,,,,,,,,,,2023-04-07_19h10.54.195,FaceAttractiveness,2022.2.5,143.3163694789474,
treatment,0% Never,100% Always,images\ LCHEEK_CFD_LM_201_057_N.png,0,0,0,0,2,13,203,32,,,,,,,,,,,,,,,,,,,,,,,2023-04-07_19h10.54.195,FaceAttractiveness,2022.2.5,143.3163694789474,
treatment,0% Never,100% Always,images\ LCHEEK_CFD_LF_224_176_N.png,0,0,0,0,2,14,204,31,,,,,,,,,,,,,,,,,,,,,,,2023-04-07_19h10.54.195,FaceAttractiveness,2022.2.5,143.3163694789474,
treatment,0% Never,100% Always,images\ LIP_006_M_F_N_A.png,0,0,0,0,2,15,205,38,,,,,,,,,,,,,,,,,,,,,,,2023-04-07_19h10.54.195,FaceAttractiveness,2022.2.5,143.3163694789474,
treatment,0% Never,100% Always,"images\ LIP_CFD_BM_234_172_N.png
",0,0,0,0,2,16,206,49,,,,,,,,,,,,,,,,,,,,,,,2023-04-07_19h10.54.195,FaceAttractiveness,2022.2.5,143.3163694789474,
treatment,0% Never,100% Always,images\ RCHEEK_CFD_LM_201_057_N.png,0,0,0,0,2,17,207,89,,,,,,,,,,,,,,,,,,,,,,,2023-04-07_19h10.54.195,FaceAttractiveness,2022.2.5,143.3163694789474,
treatment,0% Never,100% Always,"images\ LCHEEK_136_M_M_N_A.png
",0,0,0,0,2,18,208,22,,,,,,,,,,,,,,,,,,,,,,,2023-04-07_19h10.54.195,FaceAttractiveness,2022.2.5,143.3163694789474,
treatment,0% Never,100% Always,images\ RCHEEK_087_M_M_N_A.png,0,0,0,0,2,19,209,78,,,,,,,,,,,,,,,,,,,,,,,2023-04-07_19h10.54.195,FaceAttractiveness,2022.2.5,143.3163694789474,
treatment,0% Never,100% Always,images\FOREHEAD_CFD_AF_237_223_N.png,0,0,0,0,2,20,210,5,,,,,,,,,,,,,,,,,,,,,,,2023-04-07_19h10.54.195,FaceAttractiveness,2022.2.5,143.3163694789474,
treatment,0% Never,100% Always,images\FOREHEAD_CFD_AM_233_236_N.png,0,0,0,0,2,21,211,7,,,,,,,,,,,,,,,,,,,,,,,2023-04-07_19h10.54.195,FaceAttractiveness,2022.2.5,143.3163694789474,
treatment,0% Never,100% Always,images\ NASALTIP_CFD_WF_200_099_N.png,0,0,0,0,2,22,212,73,,,,,,,,,,,,,,,,,,,,,,,2023-04-07_19h10.54.195,FaceAttractiveness,2022.2.5,143.3163694789474,
treatment,0% Never,100% Always,images\ LCHEEK_CFD_BM_213_134_N.png,0,0,0,0,2,23,213,29,,,,,,,,,,,,,,,,,,,,,,,2023-04-07_19h10.54.195,FaceAttractiveness,2022.2.5,143.3163694789474,
treatment,0% Never,100% Always,images\ RCHEEK_CFD_AF_237_223_N.png,0,0,0,0,2,24,214,81,,,,,,,,,,,,,,,,,,,,,,,2023-04-07_19h10.54.195,FaceAttractiveness,2022.2.5,143.3163694789474,
treatment,0% Never,100% Always,images\ LCHEEK_CFD_BF_214_308_N.png,0,0,0,0,2,25,215,27,,,,,,,,,,,,,,,,,,,,,,,2023-04-07_19h10.54.195,FaceAttractiveness,2022.2.5,143.3163694789474,
treatment,0% Never,100% Always,images\ LIP_CFD_AF_245_143_N.png,0,0,0,0,2,26,216,44,,,,,,,,,,,,,,,,,,,,,,,2023-04-07_19h10.54.195,FaceAttractiveness,2022.2.5,143.3163694789474,
treatment,0% Never,100% Always,images\ LIP_087_M_M_N_A.png,0,0,0,0,2,27,217,40,,,,,,,,,,,,,,,,,,,,,,,2023-04-07_19h10.54.195,FaceAttractiveness,2022.2.5,143.3163694789474,
treatment,0% Never,100% Always,"images\ LIP_CFD_WF_002_004_N.png
",0,0,0,0,2,28,218,53,,,,,,,,,,,,,,,,,,,,,,,2023-04-07_19h10.54.195,FaceAttractiveness,2022.2.5,143.3163694789474,
treatment,0% Never,100% Always,images\FOREHEAD_136_M_M_N_A.png,0,0,0,0,2,29,219,3,,,,,,,,,,,,,,,,,,,,,,,2023-04-07_19h10.54.195,FaceAttractiveness,2022.2.5,143.3163694789474,
treatment,0% Never,100% Always,images\ RCHEEK_CFD_AF_231_357_N.png,0,0,0,0,2,30,220,80,,,,,,,,,,,,,,,,,,,,,,,2023-04-07_19h10.54.195,FaceAttractiveness,2022.2.5,143.3163694789474,
treatment,0% Never,100% Always,images\FOREHEAD_CFD_WF_200_099_N.png,0,0,0,0,2,31,221,16,,,,,,,,,,,,,,,,,,,,,,,2023-04-07_19h10.54.195,FaceAttractiveness,2022.2.5,143.3163694789474,
treatment,0% Never,100% Always,images\ RCHEEK_CFD_BF_224_002_N.png,0,0,0,0,2,32,222,85,,,,,,,,,,,,,,,,,,,,,,,2023-04-07_19h10.54.195,FaceAttractiveness,2022.2.5,143.3163694789474,
treatment,0% Never,100% Always,images\FOREHEAD_006_M_F_N_A.png,0,0,0,0,2,33,223,0,,,,,,,,,,,,,,,,,,,,,,,2023-04-07_19h10.54.195,FaceAttractiveness,2022.2.5,143.3163694789474,
treatment,0% Never,100% Always,images\ NASALTIP_CFD_BF_224_002_N.png,0,0,0,0,2,34,224,66,,,,,,,,,,,,,,,,,,,,,,,2023-04-07_19h10.54.195,FaceAttractiveness,2022.2.5,143.3163694789474,
treatment,0% Never,100% Always,images\FOREHEAD_CFD_BM_234_172_N.png,0,0,0,0,2,35,225,11,,,,,,,,,,,,,,,,,,,,,,,2023-04-07_19h10.54.195,FaceAttractiveness,2022.2.5,143.3163694789474,
treatment,0% Never,100% Always,images\ LCHEEK_CFD_AF_245_143_N.png,0,0,0,0,2,36,226,25,,,,,,,,,,,,,,,,,,,,,,,2023-04-07_19h10.54.195,FaceAttractiveness,2022.2.5,143.3163694789474,
treatment,0% Never,100% Always,images\ LIP_CFD_WF_250_167_N.png,0,0,0,0,2,37,227,55,,,,,,,,,,,,,,,,,,,,,,,2023-04-07_19h10.54.195,FaceAttractiveness,2022.2.5,143.3163694789474,
treatment,0% Never,100% Always,images\FOREHEAD_CFD_LM_201_057_N.png,0,0,0,0,2,38,228,13,,,,,,,,,,,,,,,,,,,,,,,2023-04-07_19h10.54.195,FaceAttractiveness,2022.2.5,143.3163694789474,
treatment,0% Never,100% Always,images\ LIP_CFD_WF_200_099_N.png,0,0,0,0,2,39,229,54,,,,,,,,,,,,,,,,,,,,,,,2023-04-07_19h10.54.195,FaceAttractiveness,2022.2.5,143.3163694789474,
treatment,0% Never,100% Always,"images\ NASALTIP_CFD_AM_233_236_N.png
",0,0,0,0,2,40,230,64,,,,,,,,,,,,,,,,,,,,,,,2023-04-07_19h10.54.195,FaceAttractiveness,2022.2.5,143.3163694789474,
treatment,0% Never,100% Always,images\FOREHEAD_CFD_LF_224_176_N.png,0,0,0,0,2,41,231,12,,,,,,,,,,,,,,,,,,,,,,,2023-04-07_19h10.54.195,FaceAttractiveness,2022.2.5,143.3163694789474,
treatment,0% Never,100% Always,images\ NASALTIP_CFD_BF_214_308_N.png,0,0,0,0,2,42,232,65,,,,,,,,,,,,,,,,,,,,,,,2023-04-07_19h10.54.195,FaceAttractiveness,2022.2.5,143.3163694789474,
treatment,0% Never,100% Always,images\ LIP_CFD_BF_214_308_N.png,0,0,0,0,2,43,233,46,,,,,,,,,,,,,,,,,,,,,,,2023-04-07_19h10.54.195,FaceAttractiveness,2022.2.5,143.3163694789474,
treatment,0% Never,100% Always,images\ NASALTIP_CFD_BM_213_134_N.png,0,0,0,0,2,44,234,67,,,,,,,,,,,,,,,,,,,,,,,2023-04-07_19h10.54.195,FaceAttractiveness,2022.2.5,143.3163694789474,
treatment,0% Never,100% Always,images\ LCHEEK_CFD_AF_237_223_N.png,0,0,0,0,2,45,235,24,,,,,,,,,,,,,,,,,,,,,,,2023-04-07_19h10.54.195,FaceAttractiveness,2022.2.5,143.3163694789474,
treatment,0% Never,100% Always,"images\ RCHEEK_CFD_WF_002_004_N.png
",0,0,0,0,2,46,236,91,,,,,,,,,,,,,,,,,,,,,,,2023-04-07_19h10.54.195,FaceAttractiveness,2022.2.5,143.3163694789474,
treatment,0% Never,100% Always,"images\ NASALTIP_CFD_BM_234_172_N.png
",0,0,0,0,2,47,237,68,,,,,,,,,,,,,,,,,,,,,,,2023-04-07_19h10.54.195,FaceAttractiveness,2022.2.5,143.3163694789474,
treatment,0% Never,100% Always,"images\ LCHEEK_CFD_AM_233_236_N.png
",0,0,0,0,2,48,238,26,,,,,,,,,,,,,,,,,,,,,,,2023-04-07_19h10.54.195,FaceAttractiveness,2022.2.5,143.3163694789474,
treatment,0% Never,100% Always,images\ RCHEEK_CFD_LF_224_176_N.png,0,0,0,0,2,49,239,88,,,,,,,,,,,,,,,,,,,,,,,2023-04-07_19h10.54.195,FaceAttractiveness,2022.2.5,143.3163694789474,
treatment,0% Never,100% Always,images\FOREHEAD_CFD_LM_203_026_N.png,0,0,0,0,2,50,240,14,,,,,,,,,,,,,,,,,,,,,,,2023-04-07_19h10.54.195,FaceAttractiveness,2022.2.5,143.3163694789474,
treatment,0% Never,100% Always,images\ RCHEEK_CFD_WF_200_099_N.png,0,0,0,0,2,51,241,92,,,,,,,,,,,,,,,,,,,,,,,2023-04-07_19h10.54.195,FaceAttractiveness,2022.2.5,143.3163694789474,
treatment,0% Never,100% Always,images\FOREHEAD_CFD_WF_250_167_N.png,0,0,0,0,2,52,242,17,,,,,,,,,,,,,,,,,,,,,,,2023-04-07_19h10.54.195,FaceAttractiveness,2022.2.5,143.3163694789474,
treatment,0% Never,100% Always,images\ NASALTIP_CFD_LM_203_026_N.png,0,0,0,0,2,53,243,71,,,,,,,,,,,,,,,,,,,,,,,2023-04-07_19h10.54.195,FaceAttractiveness,2022.2.5,143.3163694789474,
treatment,0% Never,100% Always,images\ RCHEEK_CFD_WF_250_167_N.png,0,0,0,0,2,54,244,93,,,,,,,,,,,,,,,,,,,,,,,2023-04-07_19h10.54.195,FaceAttractiveness,2022.2.5,143.3163694789474,
treatment,0% Never,100% Always,images\ RCHEEK_CFD_BM_213_134_N.png,0,0,0,0,2,55,245,86,,,,,,,,,,,,,,,,,,,,,,,2023-04-07_19h10.54.195,FaceAttractiveness,2022.2.5,143.3163694789474,
treatment,0% Never,100% Always,images\FOREHEAD_087_M_M_N_A.png,0,0,0,0,2,56,246,2,,,,,,,,,,,,,,,,,,,,,,,2023-04-07_19h10.54.195,FaceAttractiveness,2022.2.5,143.3163694789474,
treatment,0% Never,100% Always,images\ RCHEEK_006_M_F_N_A.png,0,0,0,0,2,57,247,76,,,,,,,,,,,,,,,,,,,,,,,2023-04-07_19h10.54.195,FaceAttractiveness,2022.2.5,143.3163694789474,
treatment,0% Never,100% Always,images\ LCHEEK_CFD_WF_250_167_N.png,0,0,0,0,2,58,248,36,,,,,,,,,,,,,,,,,,,,,,,2023-04-07_19h10.54.195,FaceAttractiveness,2022.2.5,143.3163694789474,
treatment,0% Never,100% Always,images\ NASALTIP_006_M_F_N_A.png,0,0,0,0,2,59,249,57,,,,,,,,,,,,,,,,,,,,,,,2023-04-07_19h10.54.195,FaceAttractiveness,2022.2.5,143.3163694789474,
treatment,0% Never,100% Always,images\ LIP_CFD_AF_231_357_N.png,0,0,0,0,2,60,250,42,,,,,,,,,,,,,,,,,,,,,,,2023-04-07_19h10.54.195,FaceAttractiveness,2022.2.5,143.3163694789474,
treatment,0% Never,100% Always,images\ RCHEEK_035_M_F_N_A.png,0,0,0,0,2,61,251,77,,,,,,,,,,,,,,,,,,,,,,,2023-04-07_19h10.54.195,FaceAttractiveness,2022.2.5,143.3163694789474,
treatment,0% Never,100% Always,images\ LCHEEK_CFD_LM_203_026_N.png,0,0,0,0,2,62,252,33,,,,,,,,,,,,,,,,,,,,,,,2023-04-07_19h10.54.195,FaceAttractiveness,2022.2.5,143.3163694789474,
treatment,0% Never,100% Always,images\ LCHEEK_CFD_WM_212_097_N.png,0,0,0,0,2,63,253,37,,,,,,,,,,,,,,,,,,,,,,,2023-04-07_19h10.54.195,FaceAttractiveness,2022.2.5,143.3163694789474,
treatment,0% Never,100% Always,images\ NASALTIP_035_M_F_N_A.png,0,0,0,0,2,64,254,58,,,,,,,,,,,,,,,,,,,,,,,2023-04-07_19h10.54.195,FaceAttractiveness,2022.2.5,143.3163694789474,
treatment,0% Never,100% Always,images\ RCHEEK_CFD_BF_214_308_N.png,0,0,0,0,2,65,255,84,,,,,,,,,,,,,,,,,,,,,,,2023-04-07_19h10.54.195,FaceAttractiveness,2022.2.5,143.3163694789474,
treatment,0% Never,100% Always,images\ NASALTIP_CFD_WM_212_097_N.png,0,0,0,0,2,66,256,75,,,,,,,,,,,,,,,,,,,,,,,2023-04-07_19h10.54.195,FaceAttractiveness,2022.2.5,143.3163694789474,
treatment,0% Never,100% Always,"images\ NASALTIP_136_M_M_N_A.png
",0,0,0,0,2,67,257,60,,,,,,,,,,,,,,,,,,,,,,,2023-04-07_19h10.54.195,FaceAttractiveness,2022.2.5,143.3163694789474,
treatment,0% Never,100% Always,images\ NASALTIP_CFD_AF_237_223_N.png,0,0,0,0,2,68,258,62,,,,,,,,,,,,,,,,,,,,,,,2023-04-07_19h10.54.195,FaceAttractiveness,2022.2.5,143.3163694789474,
treatment,0% Never,100% Always,"images\ RCHEEK_136_M_M_N_A.png
",0,0,0,0,2,69,259,79,,,,,,,,,,,,,,,,,,,,,,,2023-04-07_19h10.54.195,FaceAttractiveness,2022.2.5,143.3163694789474,
treatment,0% Never,100% Always,images\ LIP_CFD_LM_201_057_N.png,0,0,0,0,2,70,260,51,,,,,,,,,,,,,,,,,,,,,,,2023-04-07_19h10.54.195,FaceAttractiveness,2022.2.5,143.3163694789474,
treatment,0% Never,100% Always,images\ LCHEEK_CFD_WF_200_099_N.png,0,0,0,0,2,71,261,35,,,,,,,,,,,,,,,,,,,,,,,2023-04-07_19h10.54.195,FaceAttractiveness,2022.2.5,143.3163694789474,
treatment,0% Never,100% Always,images\ LIP_CFD_BF_224_002_N.png,0,0,0,0,2,72,262,47,,,,,,,,,,,,,,,,,,,,,,,2023-04-07_19h10.54.195,FaceAttractiveness,2022.2.5,143.3163694789474,
treatment,0% Never,100% Always,images\ NASALTIP_CFD_AF_231_357_N.png,0,0,0,0,2,73,263,61,,,,,,,,,,,,,,,,,,,,,,,2023-04-07_19h10.54.195,FaceAttractiveness,2022.2.5,143.3163694789474,
treatment,0% Never,100% Always,images\FOREHEAD_CFD_BF_214_308_N.png,0,0,0,0,2,74,264,8,,,,,,,,,,,,,,,,,,,,,,,2023-04-07_19h10.54.195,FaceAttractiveness,2022.2.5,143.3163694789474,
treatment,0% Never,100% Always,images\ RCHEEK_CFD_AF_245_143_N.png,0,0,0,0,2,75,265,82,,,,,,,,,,,,,,,,,,,,,,,2023-04-07_19h10.54.195,FaceAttractiveness,2022.2.5,143.3163694789474,
treatment,0% Never,100% Always,images\ LCHEEK_087_M_M_N_A.png,0,0,0,0,2,76,266,21,,,,,,,,,,,,,,,,,,,,,,,2023-04-07_19h10.54.195,FaceAttractiveness,2022.2.5,143.3163694789474,
treatment,0% Never,100% Always,"images\ LIP_136_M_M_N_A.png
",0,0,0,0,2,77,267,41,,,,,,,,,,,,,,,,,,,,,,,2023-04-07_19h10.54.195,FaceAttractiveness,2022.2.5,143.3163694789474,
treatment,0% Never,100% Always,images\ LIP_CFD_LM_203_026_N.png,0,0,0,0,2,78,268,52,,,,,,,,,,,,,,,,,,,,,,,2023-04-07_19h10.54.195,FaceAttractiveness,2022.2.5,143.3163694789474,
treatment,0% Never,100% Always,images\FOREHEAD_035_M_F_N_A.png,0,0,0,0,2,79,269,1,,,,,,,,,,,,,,,,,,,,,,,2023-04-07_19h10.54.195,FaceAttractiveness,2022.2.5,143.3163694789474,
treatment,0% Never,100% Always,images\FOREHEAD_CFD_WF_002_004_N.png,0,0,0,0,2,80,270,15,,,,,,,,,,,,,,,,,,,,,,,2023-04-07_19h10.54.195,FaceAttractiveness,2022.2.5,143.3163694789474,
treatment,0% Never,100% Always,images\ LCHEEK_006_M_F_N_A.png,0,0,0,0,2,81,271,19,,,,,,,,,,,,,,,,,,,,,,,2023-04-07_19h10.54.195,FaceAttractiveness,2022.2.5,143.3163694789474,
treatment,0% Never,100% Always,"images\ LIP_CFD_AM_233_236_N.png
",0,0,0,0,2,82,272,45,,,,,,,,,,,,,,,,,,,,,,,2023-04-07_19h10.54.195,FaceAttractiveness,2022.2.5,143.3163694789474,
treatment,0% Never,100% Always,images\FOREHEAD_CFD_WM_212_097_N.png,0,0,0,0,2,83,273,18,,,,,,,,,,,,,,,,,,,,,,,2023-04-07_19h10.54.195,FaceAttractiveness,2022.2.5,143.3163694789474,
treatment,0% Never,100% Always,"images\ RCHEEK_CFD_AM_233_236_N.png
",0,0,0,0,2,84,274,83,,,,,,,,,,,,,,,,,,,,,,,2023-04-07_19h10.54.195,FaceAttractiveness,2022.2.5,143.3163694789474,
treatment,0% Never,100% Always,images\ LCHEEK_CFD_BF_224_002_N.png,0,0,0,0,2,85,275,28,,,,,,,,,,,,,,,,,,,,,,,2023-04-07_19h10.54.195,FaceAttractiveness,2022.2.5,143.3163694789474,
treatment,0% Never,100% Always,images\ RCHEEK_CFD_LM_203_026_N.png,0,0,0,0,2,86,276,90,,,,,,,,,,,,,,,,,,,,,,,2023-04-07_19h10.54.195,FaceAttractiveness,2022.2.5,143.3163694789474,
treatment,0% Never,100% Always,"images\ NASALTIP_CFD_WF_002_004_N.png
",0,0,0,0,2,87,277,72,,,,,,,,,,,,,,,,,,,,,,,2023-04-07_19h10.54.195,FaceAttractiveness,2022.2.5,143.3163694789474,
treatment,0% Never,100% Always,images\ NASALTIP_087_M_M_N_A.png,0,0,0,0,2,88,278,59,,,,,,,,,,,,,,,,,,,,,,,2023-04-07_19h10.54.195,FaceAttractiveness,2022.2.5,143.3163694789474,
treatment,0% Never,100% Always,"images\ LCHEEK_CFD_BM_234_172_N.png
",0,0,0,0,2,89,279,30,,,,,,,,,,,,,,,,,,,,,,,2023-04-07_19h10.54.195,FaceAttractiveness,2022.2.5,143.3163694789474,
treatment,0% Never,100% Always,images\FOREHEAD_CFD_AF_245_143_N.png,0,0,0,0,2,90,280,6,,,,,,,,,,,,,,,,,,,,,,,2023-04-07_19h10.54.195,FaceAttractiveness,2022.2.5,143.3163694789474,
treatment,0% Never,100% Always,images\FOREHEAD_CFD_BF_224_002_N.png,0,0,0,0,2,91,281,9,,,,,,,,,,,,,,,,,,,,,,,2023-04-07_19h10.54.195,FaceAttractiveness,2022.2.5,143.3163694789474,
treatment,0% Never,100% Always,images\ LIP_CFD_WM_212_097_N.png,0,0,0,0,2,92,282,56,,,,,,,,,,,,,,,,,,,,,,,2023-04-07_19h10.54.195,FaceAttractiveness,2022.2.5,143.3163694789474,
treatment,0% Never,100% Always,"images\ LCHEEK_CFD_WF_002_004_N.png
",0,0,0,0,2,93,283,34,,,,,,,,,,,,,,,,,,,,,,,2023-04-07_19h10.54.195,FaceAttractiveness,2022.2.5,143.3163694789474,
treatment,0% Never,100% Always,images\ LIP_035_M_F_N_A.png,0,0,0,0,2,94,284,39,,,,,,,,,,,,,,,,,,,,,,,2023-04-07_19h10.54.195,FaceAttractiveness,2022.2.5,143.3163694789474,
treatment,0% Never,100% Always,images\FOREHEAD_CFD_BF_214_308_N.png,0,0,0,0,3,0,285,8,,,,,,,,,,,,,,,,,,,,,,,2023-04-07_19h10.54.195,FaceAttractiveness,2022.2.5,143.3163694789474,
treatment,0% Never,100% Always,images\FOREHEAD_CFD_WF_250_167_N.png,0,0,0,0,3,1,286,17,,,,,,,,,,,,,,,,,,,,,,,2023-04-07_19h10.54.195,FaceAttractiveness,2022.2.5,143.3163694789474,
treatment,0% Never,100% Always,images\ RCHEEK_006_M_F_N_A.png,0,0,0,0,3,2,287,76,,,,,,,,,,,,,,,,,,,,,,,2023-04-07_19h10.54.195,FaceAttractiveness,2022.2.5,143.3163694789474,
treatment,0% Never,100% Always,images\ LIP_CFD_BF_214_308_N.png,0,0,0,0,3,3,288,46,,,,,,,,,,,,,,,,,,,,,,,2023-04-07_19h10.54.195,FaceAttractiveness,2022.2.5,143.3163694789474,
treatment,0% Never,100% Always,"images\ LCHEEK_136_M_M_N_A.png
",0,0,0,0,3,4,289,22,,,,,,,,,,,,,,,,,,,,,,,2023-04-07_19h10.54.195,FaceAttractiveness,2022.2.5,143.3163694789474,
treatment,0% Never,100% Always,images\ RCHEEK_CFD_BF_214_308_N.png,0,0,0,0,3,5,290,84,,,,,,,,,,,,,,,,,,,,,,,2023-04-07_19h10.54.195,FaceAttractiveness,2022.2.5,143.3163694789474,
treatment,0% Never,100% Always,images\ LCHEEK_CFD_AF_245_143_N.png,0,0,0,0,3,6,291,25,,,,,,,,,,,,,,,,,,,,,,,2023-04-07_19h10.54.195,FaceAttractiveness,2022.2.5,143.3163694789474,
treatment,0% Never,100% Always,images\FOREHEAD_087_M_M_N_A.png,0,0,0,0,3,7,292,2,,,,,,,,,,,,,,,,,,,,,,,2023-04-07_19h10.54.195,FaceAttractiveness,2022.2.5,143.3163694789474,
treatment,0% Never,100% Always,images\ NASALTIP_CFD_BF_224_002_N.png,0,0,0,0,3,8,293,66,,,,,,,,,,,,,,,,,,,,,,,2023-04-07_19h10.54.195,FaceAttractiveness,2022.2.5,143.3163694789474,
treatment,0% Never,100% Always,images\ LIP_CFD_WM_212_097_N.png,0,0,0,0,3,9,294,56,,,,,,,,,,,,,,,,,,,,,,,2023-04-07_19h10.54.195,FaceAttractiveness,2022.2.5,143.3163694789474,
treatment,0% Never,100% Always,images\ LIP_CFD_AF_231_357_N.png,0,0,0,0,3,10,295,42,,,,,,,,,,,,,,,,,,,,,,,2023-04-07_19h10.54.195,FaceAttractiveness,2022.2.5,143.3163694789474,
treatment,0% Never,100% Always,images\FOREHEAD_035_M_F_N_A.png,0,0,0,0,3,11,296,1,,,,,,,,,,,,,,,,,,,,,,,2023-04-07_19h10.54.195,FaceAttractiveness,2022.2.5,143.3163694789474,
treatment,0% Never,100% Always,"images\ RCHEEK_136_M_M_N_A.png
",0,0,0,0,3,12,297,79,,,,,,,,,,,,,,,,,,,,,,,2023-04-07_19h10.54.195,FaceAttractiveness,2022.2.5,143.3163694789474,
treatment,0% Never,100% Always,images\ RCHEEK_CFD_LF_224_176_N.png,0,0,0,0,3,13,298,88,,,,,,,,,,,,,,,,,,,,,,,2023-04-07_19h10.54.195,FaceAttractiveness,2022.2.5,143.3163694789474,
treatment,0% Never,100% Always,images\ NASALTIP_CFD_BM_213_134_N.png,0,0,0,0,3,14,299,67,,,,,,,,,,,,,,,,,,,,,,,2023-04-07_19h10.54.195,FaceAttractiveness,2022.2.5,143.3163694789474,
treatment,0% Never,100% Always,"images\ LCHEEK_CFD_AM_233_236_N.png
",0,0,0,0,3,15,300,26,,,,,,,,,,,,,,,,,,,,,,,2023-04-07_19h10.54.195,FaceAttractiveness,2022.2.5,143.3163694789474,
treatment,0% Never,100% Always,images\ LCHEEK_087_M_M_N_A.png,0,0,0,0,3,16,301,21,,,,,,,,,,,,,,,,,,,,,,,2023-04-07_19h10.54.195,FaceAttractiveness,2022.2.5,143.3163694789474,
treatment,0% Never,100% Always,"images\ LIP_136_M_M_N_A.png
",0,0,0,0,3,17,302,41,,,,,,,,,,,,,,,,,,,,,,,2023-04-07_19h10.54.195,FaceAttractiveness,2022.2.5,143.3163694789474,
treatment,0% Never,100% Always,images\ NASALTIP_CFD_WM_212_097_N.png,0,0,0,0,3,18,303,75,,,,,,,,,,,,,,,,,,,,,,,2023-04-07_19h10.54.195,FaceAttractiveness,2022.2.5,143.3163694789474,
treatment,0% Never,100% Always,images\ RCHEEK_CFD_WM_212_097_N.png,0,0,0,0,3,19,304,94,,,,,,,,,,,,,,,,,,,,,,,2023-04-07_19h10.54.195,FaceAttractiveness,2022.2.5,143.3163694789474,
treatment,0% Never,100% Always,images\ NASALTIP_CFD_WF_200_099_N.png,0,0,0,0,3,20,305,73,,,,,,,,,,,,,,,,,,,,,,,2023-04-07_19h10.54.195,FaceAttractiveness,2022.2.5,143.3163694789474,
treatment,0% Never,100% Always,images\ LIP_CFD_LM_203_026_N.png,0,0,0,0,3,21,306,52,,,,,,,,,,,,,,,,,,,,,,,2023-04-07_19h10.54.195,FaceAttractiveness,2022.2.5,143.3163694789474,
treatment,0% Never,100% Always,images\ NASALTIP_CFD_LF_224_176_N.png,0,0,0,0,3,22,307,69,,,,,,,,,,,,,,,,,,,,,,,2023-04-07_19h10.54.195,FaceAttractiveness,2022.2.5,143.3163694789474,
treatment,0% Never,100% Always,images\ NASALTIP_CFD_AF_237_223_N.png,0,0,0,0,3,23,308,62,,,,,,,,,,,,,,,,,,,,,,,2023-04-07_19h10.54.195,FaceAttractiveness,2022.2.5,143.3163694789474,
treatment,0% Never,100% Always,images\FOREHEAD_CFD_WF_200_099_N.png,0,0,0,0,3,24,309,16,,,,,,,,,,,,,,,,,,,,,,,2023-04-07_19h10.54.195,FaceAttractiveness,2022.2.5,143.3163694789474,
treatment,0% Never,100% Always,images\ LIP_CFD_LF_224_176_N.png,0,0,0,0,3,25,310,50,,,,,,,,,,,,,,,,,,,,,,,2023-04-07_19h10.54.195,FaceAttractiveness,2022.2.5,143.3163694789474,
treatment,0% Never,100% Always,images\ LIP_035_M_F_N_A.png,0,0,0,0,3,26,311,39,,,,,,,,,,,,,,,,,,,,,,,2023-04-07_19h10.54.195,FaceAttractiveness,2022.2.5,143.3163694789474,
treatment,0% Never,100% Always,images\ RCHEEK_087_M_M_N_A.png,0,0,0,0,3,27,312,78,,,,,,,,,,,,,,,,,,,,,,,2023-04-07_19h10.54.195,FaceAttractiveness,2022.2.5,143.3163694789474,
treatment,0% Never,100% Always,images\FOREHEAD_CFD_BF_224_002_N.png,0,0,0,0,3,28,313,9,,,,,,,,,,,,,,,,,,,,,,,2023-04-07_19h10.54.195,FaceAttractiveness,2022.2.5,143.3163694789474,
treatment,0% Never,100% Always,images\ NASALTIP_CFD_LM_201_057_N.png,0,0,0,0,3,29,314,70,,,,,,,,,,,,,,,,,,,,,,,2023-04-07_19h10.54.195,FaceAttractiveness,2022.2.5,143.3163694789474,
treatment,0% Never,100% Always,images\FOREHEAD_CFD_WF_002_004_N.png,0,0,0,0,3,30,315,15,,,,,,,,,,,,,,,,,,,,,,,2023-04-07_19h10.54.195,FaceAttractiveness,2022.2.5,143.3163694789474,
treatment,0% Never,100% Always,images\ LIP_CFD_LM_201_057_N.png,0,0,0,0,3,31,316,51,,,,,,,,,,,,,,,,,,,,,,,2023-04-07_19h10.54.195,FaceAttractiveness,2022.2.5,143.3163694789474,
treatment,0% Never,100% Always,"images\ RCHEEK_CFD_AM_233_236_N.png
",0,0,0,0,3,32,317,83,,,,,,,,,,,,,,,,,,,,,,,2023-04-07_19h10.54.195,FaceAttractiveness,2022.2.5,143.3163694789474,
treatment,0% Never,100% Always,images\FOREHEAD_CFD_WM_212_097_N.png,0,0,0,0,3,33,318,18,,,,,,,,,,,,,,,,,,,,,,,2023-04-07_19h10.54.195,FaceAttractiveness,2022.2.5,143.3163694789474,
treatment,0% Never,100% Always,images\ LCHEEK_CFD_LM_201_057_N.png,0,0,0,0,3,34,319,32,,,,,,,,,,,,,,,,,,,,,,,2023-04-07_19h10.54.195,FaceAttractiveness,2022.2.5,143.3163694789474,
treatment,0% Never,100% Always,images\ LCHEEK_CFD_WF_250_167_N.png,0,0,0,0,3,35,320,36,,,,,,,,,,,,,,,,,,,,,,,2023-04-07_19h10.54.195,FaceAttractiveness,2022.2.5,143.3163694789474,
treatment,0% Never,100% Always,images\ LIP_CFD_BM_213_134_N.png,0,0,0,0,3,36,321,48,,,,,,,,,,,,,,,,,,,,,,,2023-04-07_19h10.54.195,FaceAttractiveness,2022.2.5,143.3163694789474,
treatment,0% Never,100% Always,images\ LCHEEK_CFD_WF_200_099_N.png,0,0,0,0,3,37,322,35,,,,,,,,,,,,,,,,,,,,,,,2023-04-07_19h10.54.195,FaceAttractiveness,2022.2.5,143.3163694789474,
treatment,0% Never,100% Always,images\FOREHEAD_CFD_LM_201_057_N.png,0,0,0,0,3,38,323,13,,,,,,,,,,,,,,,,,,,,,,,2023-04-07_19h10.54.195,FaceAttractiveness,2022.2.5,143.3163694789474,
treatment,0% Never,100% Always,images\ NASALTIP_CFD_WF_250_167_N.png,0,0,0,0,3,39,324,74,,,,,,,,,,,,,,,,,,,,,,,2023-04-07_19h10.54.195,FaceAttractiveness,2022.2.5,143.3163694789474,
treatment,0% Never,100% Always,images\ LCHEEK_CFD_AF_231_357_N.png,0,0,0,0,3,40,325,23,,,,,,,,,,,,,,,,,,,,,,,2023-04-07_19h10.54.195,FaceAttractiveness,2022.2.5,143.3163694789474,
treatment,0% Never,100% Always,"images\ RCHEEK_CFD_BM_234_172_N.png
",0,0,0,0,3,41,326,87,,,,,,,,,,,,,,,,,,,,,,,2023-04-07_19h10.54.195,FaceAttractiveness,2022.2.5,143.3163694789474,
treatment,0% Never,100% Always,images\ LCHEEK_006_M_F_N_A.png,0,0,0,0,3,42,327,19,,,,,,,,,,,,,,,,,,,,,,,2023-04-07_19h10.54.195,FaceAttractiveness,2022.2.5,143.3163694789474,
treatment,0% Never,100% Always,images\FOREHEAD_CFD_LF_224_176_N.png,0,0,0,0,3,43,328,12,,,,,,,,,,,,,,,,,,,,,,,2023-04-07_19h10.54.195,FaceAttractiveness,2022.2.5,143.3163694789474,
treatment,0% Never,100% Always,images\ NASALTIP_CFD_LM_203_026_N.png,0,0,0,0,3,44,329,71,,,,,,,,,,,,,,,,,,,,,,,2023-04-07_19h10.54.195,FaceAttractiveness,2022.2.5,143.3163694789474,
treatment,0% Never,100% Always,"images\ RCHEEK_CFD_WF_002_004_N.png
",0,0,0,0,3,45,330,91,,,,,,,,,,,,,,,,,,,,,,,2023-04-07_19h10.54.195,FaceAttractiveness,2022.2.5,143.3163694789474,
treatment,0% Never,100% Always,images\FOREHEAD_CFD_AF_245_143_N.png,0,0,0,0,3,46,331,6,,,,,,,,,,,,,,,,,,,,,,,2023-04-07_19h10.54.195,FaceAttractiveness,2022.2.5,143.3163694789474,
treatment,0% Never,100% Always,images\ RCHEEK_CFD_BM_213_134_N.png,0,0,0,0,3,47,332,86,,,,,,,,,,,,,,,,,,,,,,,2023-04-07_19h10.54.195,FaceAttractiveness,2022.2.5,143.3163694789474,
treatment,0% Never,100% Always,"images\ LCHEEK_CFD_BM_234_172_N.png
",0,0,0,0,3,48,333,30,,,,,,,,,,,,,,,,,,,,,,,2023-04-07_19h10.54.195,FaceAttractiveness,2022.2.5,143.3163694789474,
treatment,0% Never,100% Always,images\ LCHEEK_CFD_LF_224_176_N.png,0,0,0,0,3,49,334,31,,,,,,,,,,,,,,,,,,,,,,,2023-04-07_19h10.54.195,FaceAttractiveness,2022.2.5,143.3163694789474,
treatment,0% Never,100% Always,"images\ LIP_CFD_WF_002_004_N.png
",0,0,0,0,3,50,335,53,,,,,,,,,,,,,,,,,,,,,,,2023-04-07_19h10.54.195,FaceAttractiveness,2022.2.5,143.3163694789474,
treatment,0% Never,100% Always,"images\ LCHEEK_CFD_WF_002_004_N.png
",0,0,0,0,3,51,336,34,,,,,,,,,,,,,,,,,,,,,,,2023-04-07_19h10.54.195,FaceAttractiveness,2022.2.5,143.3163694789474,
treatment,0% Never,100% Always,images\ NASALTIP_CFD_AF_245_143_N.png,0,0,0,0,3,52,337,63,,,,,,,,,,,,,,,,,,,,,,,2023-04-07_19h10.54.195,FaceAttractiveness,2022.2.5,143.3163694789474,
treatment,0% Never,100% Always,images\ RCHEEK_CFD_LM_201_057_N.png,0,0,0,0,3,53,338,89,,,,,,,,,,,,,,,,,,,,,,,2023-04-07_19h10.54.195,FaceAttractiveness,2022.2.5,143.3163694789474,
treatment,0% Never,100% Always,images\ NASALTIP_CFD_AF_231_357_N.png,0,0,0,0,3,54,339,61,,,,,,,,,,,,,,,,,,,,,,,2023-04-07_19h10.54.195,FaceAttractiveness,2022.2.5,143.3163694789474,
treatment,0% Never,100% Always,images\ LIP_CFD_WF_200_099_N.png,0,0,0,0,3,55,340,54,,,,,,,,,,,,,,,,,,,,,,,2023-04-07_19h10.54.195,FaceAttractiveness,2022.2.5,143.3163694789474,
treatment,0% Never,100% Always,images\ RCHEEK_CFD_AF_245_143_N.png,0,0,0,0,3,56,341,82,,,,,,,,,,,,,,,,,,,,,,,2023-04-07_19h10.54.195,FaceAttractiveness,2022.2.5,143.3163694789474,
treatment,0% Never,100% Always,images\ LCHEEK_CFD_LM_203_026_N.png,0,0,0,0,3,57,342,33,,,,,,,,,,,,,,,,,,,,,,,2023-04-07_19h10.54.195,FaceAttractiveness,2022.2.5,143.3163694789474,
treatment,0% Never,100% Always,"images\ NASALTIP_CFD_WF_002_004_N.png
",0,0,0,0,3,58,343,72,,,,,,,,,,,,,,,,,,,,,,,2023-04-07_19h10.54.195,FaceAttractiveness,2022.2.5,143.3163694789474,
treatment,0% Never,100% Always,images\ LCHEEK_035_M_F_N_A.png,0,0,0,0,3,59,344,20,,,,,,,,,,,,,,,,,,,,,,,2023-04-07_19h10.54.195,FaceAttractiveness,2022.2.5,143.3163694789474,
treatment,0% Never,100% Always,images\ LIP_CFD_BF_224_002_N.png,0,0,0,0,3,60,345,47,,,,,,,,,,,,,,,,,,,,,,,2023-04-07_19h10.54.195,FaceAttractiveness,2022.2.5,143.3163694789474,
treatment,0% Never,100% Always,images\ LIP_CFD_AF_245_143_N.png,0,0,0,0,3,61,346,44,,,,,,,,,,,,,,,,,,,,,,,2023-04-07_19h10.54.195,FaceAttractiveness,2022.2.5,143.3163694789474,
treatment,0% Never,100% Always,images\ LIP_CFD_AF_237_223_N.png,0,0,0,0,3,62,347,43,,,,,,,,,,,,,,,,,,,,,,,2023-04-07_19h10.54.195,FaceAttractiveness,2022.2.5,143.3163694789474,
treatment,0% Never,100% Always,images\ RCHEEK_035_M_F_N_A.png,0,0,0,0,3,63,348,77,,,,,,,,,,,,,,,,,,,,,,,2023-04-07_19h10.54.195,FaceAttractiveness,2022.2.5,143.3163694789474,
treatment,0% Never,100% Always,images\ RCHEEK_CFD_AF_231_357_N.png,0,0,0,0,3,64,349,80,,,,,,,,,,,,,,,,,,,,,,,2023-04-07_19h10.54.195,FaceAttractiveness,2022.2.5,143.3163694789474,
treatment,0% Never,100% Always,images\ NASALTIP_006_M_F_N_A.png,0,0,0,0,3,65,350,57,,,,,,,,,,,,,,,,,,,,,,,2023-04-07_19h10.54.195,FaceAttractiveness,2022.2.5,143.3163694789474,
treatment,0% Never,100% Always,"images\ LIP_CFD_BM_234_172_N.png
",0,0,0,0,3,66,351,49,,,,,,,,,,,,,,,,,,,,,,,2023-04-07_19h10.54.195,FaceAttractiveness,2022.2.5,143.3163694789474,
treatment,0% Never,100% Always,images\ RCHEEK_CFD_WF_200_099_N.png,0,0,0,0,3,67,352,92,,,,,,,,,,,,,,,,,,,,,,,2023-04-07_19h10.54.195,FaceAttractiveness,2022.2.5,143.3163694789474,
treatment,0% Never,100% Always,"images\ NASALTIP_CFD_BM_234_172_N.png
",0,0,0,0,3,68,353,68,,,,,,,,,,,,,,,,,,,,,,,2023-04-07_19h10.54.195,FaceAttractiveness,2022.2.5,143.3163694789474,
treatment,0% Never,100% Always,images\ LCHEEK_CFD_BF_224_002_N.png,0,0,0,0,3,69,354,28,,,,,,,,,,,,,,,,,,,,,,,2023-04-07_19h10.54.195,FaceAttractiveness,2022.2.5,143.3163694789474,
treatment,0% Never,100% Always,images\FOREHEAD_006_M_F_N_A.png,0,0,0,0,3,70,355,0,,,,,,,,,,,,,,,,,,,,,,,2023-04-07_19h10.54.195,FaceAttractiveness,2022.2.5,143.3163694789474,
treatment,0% Never,100% Always,images\ LIP_006_M_F_N_A.png,0,0,0,0,3,71,356,38,,,,,,,,,,,,,,,,,,,,,,,2023-04-07_19h10.54.195,FaceAttractiveness,2022.2.5,143.3163694789474,
treatment,0% Never,100% Always,images\ NASALTIP_CFD_BF_214_308_N.png,0,0,0,0,3,72,357,65,,,,,,,,,,,,,,,,,,,,,,,2023-04-07_19h10.54.195,FaceAttractiveness,2022.2.5,143.3163694789474,
treatment,0% Never,100% Always,images\ LCHEEK_CFD_WM_212_097_N.png,0,0,0,0,3,73,358,37,,,,,,,,,,,,,,,,,,,,,,,2023-04-07_19h10.54.195,FaceAttractiveness,2022.2.5,143.3163694789474,
treatment,0% Never,100% Always,"images\ NASALTIP_136_M_M_N_A.png
",0,0,0,0,3,74,359,60,,,,,,,,,,,,,,,,,,,,,,,2023-04-07_19h10.54.195,FaceAttractiveness,2022.2.5,143.3163694789474,
treatment,0% Never,100% Always,images\FOREHEAD_CFD_AM_233_236_N.png,0,0,0,0,3,75,360,7,,,,,,,,,,,,,,,,,,,,,,,2023-04-07_19h10.54.195,FaceAttractiveness,2022.2.5,143.3163694789474,
treatment,0% Never,100% Always,"images\ LIP_CFD_AM_233_236_N.png
",0,0,0,0,3,76,361,45,,,,,,,,,,,,,,,,,,,,,,,2023-04-07_19h10.54.195,FaceAttractiveness,2022.2.5,143.3163694789474,
treatment,0% Never,100% Always,images\ LCHEEK_CFD_BM_213_134_N.png,0,0,0,0,3,77,362,29,,,,,,,,,,,,,,,,,,,,,,,2023-04-07_19h10.54.195,FaceAttractiveness,2022.2.5,143.3163694789474,
treatment,0% Never,100% Always,images\ NASALTIP_087_M_M_N_A.png,0,0,0,0,3,78,363,59,,,,,,,,,,,,,,,,,,,,,,,2023-04-07_19h10.54.195,FaceAttractiveness,2022.2.5,143.3163694789474,
treatment,0% Never,100% Always,images\ LIP_CFD_WF_250_167_N.png,0,0,0,0,3,79,364,55,,,,,,,,,,,,,,,,,,,,,,,2023-04-07_19h10.54.195,FaceAttractiveness,2022.2.5,143.3163694789474,
treatment,0% Never,100% Always,images\ RCHEEK_CFD_LM_203_026_N.png,0,0,0,0,3,80,365,90,,,,,,,,,,,,,,,,,,,,,,,2023-04-07_19h10.54.195,FaceAttractiveness,2022.2.5,143.3163694789474,
treatment,0% Never,100% Always,images\FOREHEAD_CFD_LM_203_026_N.png,0,0,0,0,3,81,366,14,,,,,,,,,,,,,,,,,,,,,,,2023-04-07_19h10.54.195,FaceAttractiveness,2022.2.5,143.3163694789474,
treatment,0% Never,100% Always,images\FOREHEAD_CFD_AF_231_357_N.png,0,0,0,0,3,82,367,4,,,,,,,,,,,,,,,,,,,,,,,2023-04-07_19h10.54.195,FaceAttractiveness,2022.2.5,143.3163694789474,
treatment,0% Never,100% Always,images\ LIP_087_M_M_N_A.png,0,0,0,0,3,83,368,40,,,,,,,,,,,,,,,,,,,,,,,2023-04-07_19h10.54.195,FaceAttractiveness,2022.2.5,143.3163694789474,
treatment,0% Never,100% Always,"images\ NASALTIP_CFD_AM_233_236_N.png
",0,0,0,0,3,84,369,64,,,,,,,,,,,,,,,,,,,,,,,2023-04-07_19h10.54.195,FaceAttractiveness,2022.2.5,143.3163694789474,
treatment,0% Never,100% Always,images\ RCHEEK_CFD_AF_237_223_N.png,0,0,0,0,3,85,370,81,,,,,,,,,,,,,,,,,,,,,,,2023-04-07_19h10.54.195,FaceAttractiveness,2022.2.5,143.3163694789474,
treatment,0% Never,100% Always,images\ LCHEEK_CFD_BF_214_308_N.png,0,0,0,0,3,86,371,27,,,,,,,,,,,,,,,,,,,,,,,2023-04-07_19h10.54.195,FaceAttractiveness,2022.2.5,143.3163694789474,
treatment,0% Never,100% Always,images\ RCHEEK_CFD_BF_224_002_N.png,0,0,0,0,3,87,372,85,,,,,,,,,,,,,,,,,,,,,,,2023-04-07_19h10.54.195,FaceAttractiveness,2022.2.5,143.3163694789474,
treatment,0% Never,100% Always,images\ RCHEEK_CFD_WF_250_167_N.png,0,0,0,0,3,88,373,93,,,,,,,,,,,,,,,,,,,,,,,2023-04-07_19h10.54.195,FaceAttractiveness,2022.2.5,143.3163694789474,
treatment,0% Never,100% Always,images\ NASALTIP_035_M_F_N_A.png,0,0,0,0,3,89,374,58,,,,,,,,,,,,,,,,,,,,,,,2023-04-07_19h10.54.195,FaceAttractiveness,2022.2.5,143.3163694789474,
treatment,0% Never,100% Always,images\FOREHEAD_CFD_BM_213_134_N.png,0,0,0,0,3,90,375,10,,,,,,,,,,,,,,,,,,,,,,,2023-04-07_19h10.54.195,FaceAttractiveness,2022.2.5,143.3163694789474,
treatment,0% Never,100% Always,images\FOREHEAD_CFD_AF_237_223_N.png,0,0,0,0,3,91,376,5,,,,,,,,,,,,,,,,,,,,,,,2023-04-07_19h10.54.195,FaceAttractiveness,2022.2.5,143.3163694789474,
treatment,0% Never,100% Always,images\ LCHEEK_CFD_AF_237_223_N.png,0,0,0,0,3,92,377,24,,,,,,,,,,,,,,,,,,,,,,,2023-04-07_19h10.54.195,FaceAttractiveness,2022.2.5,143.3163694789474,
treatment,0% Never,100% Always,images\FOREHEAD_136_M_M_N_A.png,0,0,0,0,3,93,378,3,,,,,,,,,,,,,,,,,,,,,,,2023-04-07_19h10.54.195,FaceAttractiveness,2022.2.5,143.3163694789474,
treatment,0% Never,100% Always,images\FOREHEAD_CFD_BM_234_172_N.png,0,0,0,0,3,94,379,11,,,,,,,,,,,,,,,,,,,,,,,2023-04-07_19h10.54.195,FaceAttractiveness,2022.2.5,143.3163694789474,
treatment,0% Never,100% Always,images\ LIP_087_M_M_N_A.png,0,0,0,0,4,0,380,40,,,,,,,,,,,,,,,,,,,,,,,2023-04-07_19h10.54.195,FaceAttractiveness,2022.2.5,143.3163694789474,
treatment,0% Never,100% Always,images\FOREHEAD_CFD_AM_233_236_N.png,0,0,0,0,4,1,381,7,,,,,,,,,,,,,,,,,,,,,,,2023-04-07_19h10.54.195,FaceAttractiveness,2022.2.5,143.3163694789474,
treatment,0% Never,100% Always,"images\ LCHEEK_136_M_M_N_A.png
",0,0,0,0,4,2,382,22,,,,,,,,,,,,,,,,,,,,,,,2023-04-07_19h10.54.195,FaceAttractiveness,2022.2.5,143.3163694789474,
treatment,0% Never,100% Always,images\ LIP_CFD_AF_231_357_N.png,0,0,0,0,4,3,383,42,,,,,,,,,,,,,,,,,,,,,,,2023-04-07_19h10.54.195,FaceAttractiveness,2022.2.5,143.3163694789474,
treatment,0% Never,100% Always,images\FOREHEAD_CFD_AF_237_223_N.png,0,0,0,0,4,4,384,5,,,,,,,,,,,,,,,,,,,,,,,2023-04-07_19h10.54.195,FaceAttractiveness,2022.2.5,143.3163694789474,
treatment,0% Never,100% Always,images\ LIP_035_M_F_N_A.png,0,0,0,0,4,5,385,39,,,,,,,,,,,,,,,,,,,,,,,2023-04-07_19h10.54.195,FaceAttractiveness,2022.2.5,143.3163694789474,
treatment,0% Never,100% Always,"images\ LCHEEK_CFD_BM_234_172_N.png
",0,0,0,0,4,6,386,30,,,,,,,,,,,,,,,,,,,,,,,2023-04-07_19h10.54.195,FaceAttractiveness,2022.2.5,143.3163694789474,
treatment,0% Never,100% Always,images\ NASALTIP_CFD_WF_200_099_N.png,0,0,0,0,4,7,387,73,,,,,,,,,,,,,,,,,,,,,,,2023-04-07_19h10.54.195,FaceAttractiveness,2022.2.5,143.3163694789474,
treatment,0% Never,100% Always,images\ LCHEEK_CFD_LF_224_176_N.png,0,0,0,0,4,8,388,31,,,,,,,,,,,,,,,,,,,,,,,2023-04-07_19h10.54.195,FaceAttractiveness,2022.2.5,143.3163694789474,
treatment,0% Never,100% Always,images\ LCHEEK_CFD_BF_214_308_N.png,0,0,0,0,4,9,389,27,,,,,,,,,,,,,,,,,,,,,,,2023-04-07_19h10.54.195,FaceAttractiveness,2022.2.5,143.3163694789474,
treatment,0% Never,100% Always,images\FOREHEAD_CFD_LM_201_057_N.png,0,0,0,0,4,10,390,13,,,,,,,,,,,,,,,,,,,,,,,2023-04-07_19h10.54.195,FaceAttractiveness,2022.2.5,143.3163694789474,
treatment,0% Never,100% Always,"images\ LCHEEK_CFD_AM_233_236_N.png
",0,0,0,0,4,11,391,26,,,,,,,,,,,,,,,,,,,,,,,2023-04-07_19h10.54.195,FaceAttractiveness,2022.2.5,143.3163694789474,
treatment,0% Never,100% Always,"images\ NASALTIP_CFD_BM_234_172_N.png
",0,0,0,0,4,12,392,68,,,,,,,,,,,,,,,,,,,,,,,2023-04-07_19h10.54.195,FaceAttractiveness,2022.2.5,143.3163694789474,
treatment,0% Never,100% Always,images\ LIP_CFD_BF_214_308_N.png,0,0,0,0,4,13,393,46,,,,,,,,,,,,,,,,,,,,,,,2023-04-07_19h10.54.195,FaceAttractiveness,2022.2.5,143.3163694789474,
treatment,0% Never,100% Always,images\ RCHEEK_CFD_WF_200_099_N.png,0,0,0,0,4,14,394,92,,,,,,,,,,,,,,,,,,,,,,,2023-04-07_19h10.54.195,FaceAttractiveness,2022.2.5,143.3163694789474,
treatment,0% Never,100% Always,"images\ NASALTIP_CFD_AM_233_236_N.png
",0,0,0,0,4,15,395,64,,,,,,,,,,,,,,,,,,,,,,,2023-04-07_19h10.54.195,FaceAttractiveness,2022.2.5,143.3163694789474,
treatment,0% Never,100% Always,images\ LIP_CFD_WF_250_167_N.png,0,0,0,0,4,16,396,55,,,,,,,,,,,,,,,,,,,,,,,2023-04-07_19h10.54.195,FaceAttractiveness,2022.2.5,143.3163694789474,
treatment,0% Never,100% Always,images\FOREHEAD_CFD_AF_245_143_N.png,0,0,0,0,4,17,397,6,,,,,,,,,,,,,,,,,,,,,,,2023-04-07_19h10.54.195,FaceAttractiveness,2022.2.5,143.3163694789474,
treatment,0% Never,100% Always,"images\ LCHEEK_CFD_WF_002_004_N.png
",0,0,0,0,4,18,398,34,,,,,,,,,,,,,,,,,,,,,,,2023-04-07_19h10.54.195,FaceAttractiveness,2022.2.5,143.3163694789474,
treatment,0% Never,100% Always,"images\ NASALTIP_136_M_M_N_A.png
",0,0,0,0,4,19,399,60,,,,,,,,,,,,,,,,,,,,,,,2023-04-07_19h10.54.195,FaceAttractiveness,2022.2.5,143.3163694789474,
treatment,0% Never,100% Always,images\ LIP_006_M_F_N_A.png,0,0,0,0,4,20,400,38,,,,,,,,,,,,,,,,,,,,,,,2023-04-07_19h10.54.195,FaceAttractiveness,2022.2.5,143.3163694789474,
treatment,0% Never,100% Always,images\ LIP_CFD_WM_212_097_N.png,0,0,0,0,4,21,401,56,,,,,,,,,,,,,,,,,,,,,,,2023-04-07_19h10.54.195,FaceAttractiveness,2022.2.5,143.3163694789474,
treatment,0% Never,100% Always,images\ RCHEEK_CFD_WM_212_097_N.png,0,0,0,0,4,22,402,94,,,,,,,,,,,,,,,,,,,,,,,2023-04-07_19h10.54.195,FaceAttractiveness,2022.2.5,143.3163694789474,
treatment,0% Never,100% Always,images\ LCHEEK_035_M_F_N_A.png,0,0,0,0,4,23,403,20,,,,,,,,,,,,,,,,,,,,,,,2023-04-07_19h10.54.195,FaceAttractiveness,2022.2.5,143.3163694789474,
treatment,0% Never,100% Always,images\ RCHEEK_CFD_BF_224_002_N.png,0,0,0,0,4,24,404,85,,,,,,,,,,,,,,,,,,,,,,,2023-04-07_19h10.54.195,FaceAttractiveness,2022.2.5,143.3163694789474,
treatment,0% Never,100% Always,images\ LCHEEK_CFD_LM_201_057_N.png,0,0,0,0,4,25,405,32,,,,,,,,,,,,,,,,,,,,,,,2023-04-07_19h10.54.195,FaceAttractiveness,2022.2.5,143.3163694789474,
treatment,0% Never,100% Always,images\ RCHEEK_CFD_LM_203_026_N.png,0,0,0,0,4,26,406,90,,,,,,,,,,,,,,,,,,,,,,,2023-04-07_19h10.54.195,FaceAttractiveness,2022.2.5,143.3163694789474,
treatment,0% Never,100% Always,images\ RCHEEK_CFD_AF_237_223_N.png,0,0,0,0,4,27,407,81,,,,,,,,,,,,,,,,,,,,,,,2023-04-07_19h10.54.195,FaceAttractiveness,2022.2.5,143.3163694789474,
treatment,0% Never,100% Always,"images\ LIP_136_M_M_N_A.png
",0,0,0,0,4,28,408,41,,,,,,,,,,,,,,,,,,,,,,,2023-04-07_19h10.54.195,FaceAttractiveness,2022.2.5,143.3163694789474,
treatment,0% Never,100% Always,images\ LCHEEK_CFD_AF_231_357_N.png,0,0,0,0,4,29,409,23,,,,,,,,,,,,,,,,,,,,,,,2023-04-07_19h10.54.195,FaceAttractiveness,2022.2.5,143.3163694789474,
treatment,0% Never,100% Always,images\ LCHEEK_CFD_AF_237_223_N.png,0,0,0,0,4,30,410,24,,,,,,,,,,,,,,,,,,,,,,,2023-04-07_19h10.54.195,FaceAttractiveness,2022.2.5,143.3163694789474,
treatment,0% Never,100% Always,"images\ LIP_CFD_WF_002_004_N.png
",0,0,0,0,4,31,411,53,,,,,,,,,,,,,,,,,,,,,,,2023-04-07_19h10.54.195,FaceAttractiveness,2022.2.5,143.3163694789474,
treatment,0% Never,100% Always,images\FOREHEAD_CFD_BF_214_308_N.png,0,0,0,0,4,32,412,8,,,,,,,,,,,,,,,,,,,,,,,2023-04-07_19h10.54.195,FaceAttractiveness,2022.2.5,143.3163694789474,
treatment,0% Never,100% Always,images\ RCHEEK_CFD_BF_214_308_N.png,0,0,0,0,4,33,413,84,,,,,,,,,,,,,,,,,,,,,,,2023-04-07_19h10.54.195,FaceAttractiveness,2022.2.5,143.3163694789474,
treatment,0% Never,100% Always,images\ NASALTIP_CFD_WM_212_097_N.png,0,0,0,0,4,34,414,75,,,,,,,,,,,,,,,,,,,,,,,2023-04-07_19h10.54.195,FaceAttractiveness,2022.2.5,143.3163694789474,
treatment,0% Never,100% Always,images\ LCHEEK_CFD_BF_224_002_N.png,0,0,0,0,4,35,415,28,,,,,,,,,,,,,,,,,,,,,,,2023-04-07_19h10.54.195,FaceAttractiveness,2022.2.5,143.3163694789474,
treatment,0% Never,100% Always,images\FOREHEAD_136_M_M_N_A.png,0,0,0,0,4,36,416,3,,,,,,,,,,,,,,,,,,,,,,,2023-04-07_19h10.54.195,FaceAttractiveness,2022.2.5,143.3163694789474,
treatment,0% Never,100% Always,images\ NASALTIP_CFD_BF_224_002_N.png,0,0,0,0,4,37,417,66,,,,,,,,,,,,,,,,,,,,,,,2023-04-07_19h10.54.195,FaceAttractiveness,2022.2.5,143.3163694789474,
treatment,0% Never,100% Always,images\ NASALTIP_CFD_LF_224_176_N.png,0,0,0,0,4,38,418,69,,,,,,,,,,,,,,,,,,,,,,,2023-04-07_19h10.54.195,FaceAttractiveness,2022.2.5,143.3163694789474,
treatment,0% Never,100% Always,images\ RCHEEK_006_M_F_N_A.png,0,0,0,0,4,39,419,76,,,,,,,,,,,,,,,,,,,,,,,2023-04-07_19h10.54.195,FaceAttractiveness,2022.2.5,143.3163694789474,
treatment,0% Never,100% Always,images\ NASALTIP_CFD_WF_250_167_N.png,0,0,0,0,4,40,420,74,,,,,,,,,,,,,,,,,,,,,,,2023-04-07_19h10.54.195,FaceAttractiveness,2022.2.5,143.3163694789474,
treatment,0% Never,100% Always,images\FOREHEAD_CFD_WF_002_004_N.png,0,0,0,0,4,41,421,15,,,,,,,,,,,,,,,,,,,,,,,2023-04-07_19h10.54.195,FaceAttractiveness,2022.2.5,143.3163694789474,
treatment,0% Never,100% Always,images\FOREHEAD_CFD_BM_213_134_N.png,0,0,0,0,4,42,422,10,,,,,,,,,,,,,,,,,,,,,,,2023-04-07_19h10.54.195,FaceAttractiveness,2022.2.5,143.3163694789474,
treatment,0% Never,100% Always,images\ NASALTIP_CFD_BF_214_308_N.png,0,0,0,0,4,43,423,65,,,,,,,,,,,,,,,,,,,,,,,2023-04-07_19h10.54.195,FaceAttractiveness,2022.2.5,143.3163694789474,
treatment,0% Never,100% Always,images\FOREHEAD_006_M_F_N_A.png,0,0,0,0,4,44,424,0,,,,,,,,,,,,,,,,,,,,,,,2023-04-07_19h10.54.195,FaceAttractiveness,2022.2.5,143.3163694789474,
treatment,0% Never,100% Always,images\FOREHEAD_035_M_F_N_A.png,0,0,0,0,4,45,425,1,,,,,,,,,,,,,,,,,,,,,,,2023-04-07_19h10.54.195,FaceAttractiveness,2022.2.5,143.3163694789474,
treatment,0% Never,100% Always,images\ LIP_CFD_BF_224_002_N.png,0,0,0,0,4,46,426,47,,,,,,,,,,,,,,,,,,,,,,,2023-04-07_19h10.54.195,FaceAttractiveness,2022.2.5,143.3163694789474,
treatment,0% Never,100% Always,"images\ LIP_CFD_BM_234_172_N.png
",0,0,0,0,4,47,427,49,,,,,,,,,,,,,,,,,,,,,,,2023-04-07_19h10.54.195,FaceAttractiveness,2022.2.5,143.3163694789474,
treatment,0% Never,100% Always,images\FOREHEAD_CFD_WF_200_099_N.png,0,0,0,0,4,48,428,16,,,,,,,,,,,,,,,,,,,,,,,2023-04-07_19h10.54.195,FaceAttractiveness,2022.2.5,143.3163694789474,
treatment,0% Never,100% Always,"images\ LIP_CFD_AM_233_236_N.png
",0,0,0,0,4,49,429,45,,,,,,,,,,,,,,,,,,,,,,,2023-04-07_19h10.54.195,FaceAttractiveness,2022.2.5,143.3163694789474,
treatment,0% Never,100% Always,images\ RCHEEK_087_M_M_N_A.png,0,0,0,0,4,50,430,78,,,,,,,,,,,,,,,,,,,,,,,2023-04-07_19h10.54.195,FaceAttractiveness,2022.2.5,143.3163694789474,
treatment,0% Never,100% Always,images\ NASALTIP_035_M_F_N_A.png,0,0,0,0,4,51,431,58,,,,,,,,,,,,,,,,,,,,,,,2023-04-07_19h10.54.195,FaceAttractiveness,2022.2.5,143.3163694789474,
treatment,0% Never,100% Always,images\ NASALTIP_087_M_M_N_A.png,0,0,0,0,4,52,432,59,,,,,,,,,,,,,,,,,,,,,,,2023-04-07_19h10.54.195,FaceAttractiveness,2022.2.5,143.3163694789474,
treatment,0% Never,100% Always,images\ LIP_CFD_WF_200_099_N.png,0,0,0,0,4,53,433,54,,,,,,,,,,,,,,,,,,,,,,,2023-04-07_19h10.54.195,FaceAttractiveness,2022.2.5,143.3163694789474,
treatment,0% Never,100% Always,images\ LCHEEK_006_M_F_N_A.png,0,0,0,0,4,54,434,19,,,,,,,,,,,,,,,,,,,,,,,2023-04-07_19h10.54.195,FaceAttractiveness,2022.2.5,143.3163694789474,
treatment,0% Never,100% Always,images\ LCHEEK_CFD_LM_203_026_N.png,0,0,0,0,4,55,435,33,,,,,,,,,,,,,,,,,,,,,,,2023-04-07_19h10.54.195,FaceAttractiveness,2022.2.5,143.3163694789474,
treatment,0% Never,100% Always,images\FOREHEAD_CFD_AF_231_357_N.png,0,0,0,0,4,56,436,4,,,,,,,,,,,,,,,,,,,,,,,2023-04-07_19h10.54.195,FaceAttractiveness,2022.2.5,143.3163694789474,
treatment,0% Never,100% Always,images\ NASALTIP_CFD_LM_203_026_N.png,0,0,0,0,4,57,437,71,,,,,,,,,,,,,,,,,,,,,,,2023-04-07_19h10.54.195,FaceAttractiveness,2022.2.5,143.3163694789474,
treatment,0% Never,100% Always,"images\ RCHEEK_CFD_BM_234_172_N.png
",0,0,0,0,4,58,438,87,,,,,,,,,,,,,,,,,,,,,,,2023-04-07_19h10.54.195,FaceAttractiveness,2022.2.5,143.3163694789474,
treatment,0% Never,100% Always,images\ RCHEEK_CFD_WF_250_167_N.png,0,0,0,0,4,59,439,93,,,,,,,,,,,,,,,,,,,,,,,2023-04-07_19h10.54.195,FaceAttractiveness,2022.2.5,143.3163694789474,
treatment,0% Never,100% Always,images\ NASALTIP_CFD_AF_245_143_N.png,0,0,0,0,4,60,440,63,,,,,,,,,,,,,,,,,,,,,,,2023-04-07_19h10.54.195,FaceAttractiveness,2022.2.5,143.3163694789474,
treatment,0% Never,100% Always,images\FOREHEAD_CFD_LM_203_026_N.png,0,0,0,0,4,61,441,14,,,,,,,,,,,,,,,,,,,,,,,2023-04-07_19h10.54.195,FaceAttractiveness,2022.2.5,143.3163694789474,
treatment,0% Never,100% Always,images\ LCHEEK_087_M_M_N_A.png,0,0,0,0,4,62,442,21,,,,,,,,,,,,,,,,,,,,,,,2023-04-07_19h10.54.195,FaceAttractiveness,2022.2.5,143.3163694789474,
treatment,0% Never,100% Always,images\ RCHEEK_CFD_AF_231_357_N.png,0,0,0,0,4,63,443,80,,,,,,,,,,,,,,,,,,,,,,,2023-04-07_19h10.54.195,FaceAttractiveness,2022.2.5,143.3163694789474,
treatment,0% Never,100% Always,images\ LIP_CFD_LF_224_176_N.png,0,0,0,0,4,64,444,50,,,,,,,,,,,,,,,,,,,,,,,2023-04-07_19h10.54.195,FaceAttractiveness,2022.2.5,143.3163694789474,
treatment,0% Never,100% Always,images\ LCHEEK_CFD_BM_213_134_N.png,0,0,0,0,4,65,445,29,,,,,,,,,,,,,,,,,,,,,,,2023-04-07_19h10.54.195,FaceAttractiveness,2022.2.5,143.3163694789474,
treatment,0% Never,100% Always,images\ LIP_CFD_LM_201_057_N.png,0,0,0,0,4,66,446,51,,,,,,,,,,,,,,,,,,,,,,,2023-04-07_19h10.54.195,FaceAttractiveness,2022.2.5,143.3163694789474,
treatment,0% Never,100% Always,images\ RCHEEK_CFD_AF_245_143_N.png,0,0,0,0,4,67,447,82,,,,,,,,,,,,,,,,,,,,,,,2023-04-07_19h10.54.195,FaceAttractiveness,2022.2.5,143.3163694789474,
treatment,0% Never,100% Always,images\ LCHEEK_CFD_WF_250_167_N.png,0,0,0,0,4,68,448,36,,,,,,,,,,,,,,,,,,,,,,,2023-04-07_19h10.54.195,FaceAttractiveness,2022.2.5,143.3163694789474,
treatment,0% Never,100% Always,"images\ NASALTIP_CFD_WF_002_004_N.png
",0,0,0,0,4,69,449,72,,,,,,,,,,,,,,,,,,,,,,,2023-04-07_19h10.54.195,FaceAttractiveness,2022.2.5,143.3163694789474,
treatment,0% Never,100% Always,images\ LIP_CFD_AF_245_143_N.png,0,0,0,0,4,70,450,44,,,,,,,,,,,,,,,,,,,,,,,2023-04-07_19h10.54.195,FaceAttractiveness,2022.2.5,143.3163694789474,
treatment,0% Never,100% Always,images\ NASALTIP_CFD_AF_231_357_N.png,0,0,0,0,4,71,451,61,,,,,,,,,,,,,,,,,,,,,,,2023-04-07_19h10.54.195,FaceAttractiveness,2022.2.5,143.3163694789474,
treatment,0% Never,100% Always,images\ NASALTIP_CFD_AF_237_223_N.png,0,0,0,0,4,72,452,62,,,,,,,,,,,,,,,,,,,,,,,2023-04-07_19h10.54.195,FaceAttractiveness,2022.2.5,143.3163694789474,
treatment,0% Never,100% Always,"images\ RCHEEK_CFD_WF_002_004_N.png
",0,0,0,0,4,73,453,91,,,,,,,,,,,,,,,,,,,,,,,2023-04-07_19h10.54.195,FaceAttractiveness,2022.2.5,143.3163694789474,
treatment,0% Never,100% Always,images\ RCHEEK_CFD_BM_213_134_N.png,0,0,0,0,4,74,454,86,,,,,,,,,,,,,,,,,,,,,,,2023-04-07_19h10.54.195,FaceAttractiveness,2022.2.5,143.3163694789474,
treatment,0% Never,100% Always,images\ NASALTIP_006_M_F_N_A.png,0,0,0,0,4,75,455,57,,,,,,,,,,,,,,,,,,,,,,,2023-04-07_19h10.54.195,FaceAttractiveness,2022.2.5,143.3163694789474,
treatment,0% Never,100% Always,images\ LIP_CFD_BM_213_134_N.png,0,0,0,0,4,76,456,48,,,,,,,,,,,,,,,,,,,,,,,2023-04-07_19h10.54.195,FaceAttractiveness,2022.2.5,143.3163694789474,
treatment,0% Never,100% Always,images\FOREHEAD_CFD_LF_224_176_N.png,0,0,0,0,4,77,457,12,,,,,,,,,,,,,,,,,,,,,,,2023-04-07_19h10.54.195,FaceAttractiveness,2022.2.5,143.3163694789474,
treatment,0% Never,100% Always,images\ LCHEEK_CFD_WF_200_099_N.png,0,0,0,0,4,78,458,35,,,,,,,,,,,,,,,,,,,,,,,2023-04-07_19h10.54.195,FaceAttractiveness,2022.2.5,143.3163694789474,
treatment,0% Never,100% Always,images\FOREHEAD_CFD_WF_250_167_N.png,0,0,0,0,4,79,459,17,,,,,,,,,,,,,,,,,,,,,,,2023-04-07_19h10.54.195,FaceAttractiveness,2022.2.5,143.3163694789474,
treatment,0% Never,100% Always,images\FOREHEAD_CFD_WM_212_097_N.png,0,0,0,0,4,80,460,18,,,,,,,,,,,,,,,,,,,,,,,2023-04-07_19h10.54.195,FaceAttractiveness,2022.2.5,143.3163694789474,
treatment,0% Never,100% Always,images\ LCHEEK_CFD_WM_212_097_N.png,0,0,0,0,4,81,461,37,,,,,,,,,,,,,,,,,,,,,,,2023-04-07_19h10.54.195,FaceAttractiveness,2022.2.5,143.3163694789474,
treatment,0% Never,100% Always,images\ NASALTIP_CFD_BM_213_134_N.png,0,0,0,0,4,82,462,67,,,,,,,,,,,,,,,,,,,,,,,2023-04-07_19h10.54.195,FaceAttractiveness,2022.2.5,143.3163694789474,
treatment,0% Never,100% Always,"images\ RCHEEK_136_M_M_N_A.png
",0,0,0,0,4,83,463,79,,,,,,,,,,,,,,,,,,,,,,,2023-04-07_19h10.54.195,FaceAttractiveness,2022.2.5,143.3163694789474,
treatment,0% Never,100% Always,images\ RCHEEK_CFD_LF_224_176_N.png,0,0,0,0,4,84,464,88,,,,,,,,,,,,,,,,,,,,,,,2023-04-07_19h10.54.195,FaceAttractiveness,2022.2.5,143.3163694789474,
treatment,0% Never,100% Always,images\FOREHEAD_087_M_M_N_A.png,0,0,0,0,4,85,465,2,,,,,,,,,,,,,,,,,,,,,,,2023-04-07_19h10.54.195,FaceAttractiveness,2022.2.5,143.3163694789474,
treatment,0% Never,100% Always,images\ LIP_CFD_AF_237_223_N.png,0,0,0,0,4,86,466,43,,,,,,,,,,,,,,,,,,,,,,,2023-04-07_19h10.54.195,FaceAttractiveness,2022.2.5,143.3163694789474,
treatment,0% Never,100% Always,images\FOREHEAD_CFD_BF_224_002_N.png,0,0,0,0,4,87,467,9,,,,,,,,,,,,,,,,,,,,,,,2023-04-07_19h10.54.195,FaceAttractiveness,2022.2.5,143.3163694789474,
treatment,0% Never,100% Always,images\ RCHEEK_CFD_LM_201_057_N.png,0,0,0,0,4,88,468,89,,,,,,,,,,,,,,,,,,,,,,,2023-04-07_19h10.54.195,FaceAttractiveness,2022.2.5,143.3163694789474,
treatment,0% Never,100% Always,"images\ RCHEEK_CFD_AM_233_236_N.png
",0,0,0,0,4,89,469,83,,,,,,,,,,,,,,,,,,,,,,,2023-04-07_19h10.54.195,FaceAttractiveness,2022.2.5,143.3163694789474,
treatment,0% Never,100% Always,images\ LIP_CFD_LM_203_026_N.png,0,0,0,0,4,90,470,52,,,,,,,,,,,,,,,,,,,,,,,2023-04-07_19h10.54.195,FaceAttractiveness,2022.2.5,143.3163694789474,
treatment,0% Never,100% Always,images\ NASALTIP_CFD_LM_201_057_N.png,0,0,0,0,4,91,471,70,,,,,,,,,,,,,,,,,,,,,,,2023-04-07_19h10.54.195,FaceAttractiveness,2022.2.5,143.3163694789474,
treatment,0% Never,100% Always,images\ LCHEEK_CFD_AF_245_143_N.png,0,0,0,0,4,92,472,25,,,,,,,,,,,,,,,,,,,,,,,2023-04-07_19h10.54.195,FaceAttractiveness,2022.2.5,143.3163694789474,
treatment,0% Never,100% Always,images\FOREHEAD_CFD_BM_234_172_N.png,0,0,0,0,4,93,473,11,,,,,,,,,,,,,,,,,,,,,,,2023-04-07_19h10.54.195,FaceAttractiveness,2022.2.5,143.3163694789474,
treatment,0% Never,100% Always,images\ RCHEEK_035_M_F_N_A.png,0,0,0,0,4,94,474,77,,,,,,,,,,,,,,,,,,,,,,,2023-04-07_19h10.54.195,FaceAttractiveness,2022.2.5,143.3163694789474,
treatment,0% Never,100% Always,images\ LCHEEK_CFD_BF_224_002_N.png,0,0,0,0,5,0,475,28,,,,,,,,,,,,,,,,,,,,,,,2023-04-07_19h10.54.195,FaceAttractiveness,2022.2.5,143.3163694789474,
treatment,0% Never,100% Always,images\ RCHEEK_CFD_BF_224_002_N.png,0,0,0,0,5,1,476,85,,,,,,,,,,,,,,,,,,,,,,,2023-04-07_19h10.54.195,FaceAttractiveness,2022.2.5,143.3163694789474,
treatment,0% Never,100% Always,"images\ NASALTIP_CFD_AM_233_236_N.png
",0,0,0,0,5,2,477,64,,,,,,,,,,,,,,,,,,,,,,,2023-04-07_19h10.54.195,FaceAttractiveness,2022.2.5,143.3163694789474,
treatment,0% Never,100% Always,images\ RCHEEK_CFD_BM_213_134_N.png,0,0,0,0,5,3,478,86,,,,,,,,,,,,,,,,,,,,,,,2023-04-07_19h10.54.195,FaceAttractiveness,2022.2.5,143.3163694789474,
treatment,0% Never,100% Always,images\ LIP_CFD_AF_245_143_N.png,0,0,0,0,5,4,479,44,,,,,,,,,,,,,,,,,,,,,,,2023-04-07_19h10.54.195,FaceAttractiveness,2022.2.5,143.3163694789474,
treatment,0% Never,100% Always,images\ LCHEEK_CFD_WM_212_097_N.png,0,0,0,0,5,5,480,37,,,,,,,,,,,,,,,,,,,,,,,2023-04-07_19h10.54.195,FaceAttractiveness,2022.2.5,143.3163694789474,
treatment,0% Never,100% Always,images\ NASALTIP_006_M_F_N_A.png,0,0,0,0,5,6,481,57,,,,,,,,,,,,,,,,,,,,,,,2023-04-07_19h10.54.195,FaceAttractiveness,2022.2.5,143.3163694789474,
treatment,0% Never,100% Always,images\ LIP_006_M_F_N_A.png,0,0,0,0,5,7,482,38,,,,,,,,,,,,,,,,,,,,,,,2023-04-07_19h10.54.195,FaceAttractiveness,2022.2.5,143.3163694789474,
treatment,0% Never,100% Always,images\ LCHEEK_CFD_LF_224_176_N.png,0,0,0,0,5,8,483,31,,,,,,,,,,,,,,,,,,,,,,,2023-04-07_19h10.54.195,FaceAttractiveness,2022.2.5,143.3163694789474,
treatment,0% Never,100% Always,images\ LIP_CFD_WF_250_167_N.png,0,0,0,0,5,9,484,55,,,,,,,,,,,,,,,,,,,,,,,2023-04-07_19h10.54.195,FaceAttractiveness,2022.2.5,143.3163694789474,
treatment,0% Never,100% Always,"images\ NASALTIP_136_M_M_N_A.png
",0,0,0,0,5,10,485,60,,,,,,,,,,,,,,,,,,,,,,,2023-04-07_19h10.54.195,FaceAttractiveness,2022.2.5,143.3163694789474,
treatment,0% Never,100% Always,images\ LIP_CFD_LF_224_176_N.png,0,0,0,0,5,11,486,50,,,,,,,,,,,,,,,,,,,,,,,2023-04-07_19h10.54.195,FaceAttractiveness,2022.2.5,143.3163694789474,
treatment,0% Never,100% Always,images\ LCHEEK_CFD_BF_214_308_N.png,0,0,0,0,5,12,487,27,,,,,,,,,,,,,,,,,,,,,,,2023-04-07_19h10.54.195,FaceAttractiveness,2022.2.5,143.3163694789474,
treatment,0% Never,100% Always,images\ LCHEEK_006_M_F_N_A.png,0,0,0,0,5,13,488,19,,,,,,,,,,,,,,,,,,,,,,,2023-04-07_19h10.54.195,FaceAttractiveness,2022.2.5,143.3163694789474,
treatment,0% Never,100% Always,images\ RCHEEK_CFD_AF_237_223_N.png,0,0,0,0,5,14,489,81,,,,,,,,,,,,,,,,,,,,,,,2023-04-07_19h10.54.195,FaceAttractiveness,2022.2.5,143.3163694789474,
treatment,0% Never,100% Always,images\ LCHEEK_CFD_AF_245_143_N.png,0,0,0,0,5,15,490,25,,,,,,,,,,,,,,,,,,,,,,,2023-04-07_19h10.54.195,FaceAttractiveness,2022.2.5,143.3163694789474,
treatment,0% Never,100% Always,"images\ NASALTIP_CFD_WF_002_004_N.png
",0,0,0,0,5,16,491,72,,,,,,,,,,,,,,,,,,,,,,,2023-04-07_19h10.54.195,FaceAttractiveness,2022.2.5,143.3163694789474,
treatment,0% Never,100% Always,images\FOREHEAD_CFD_BF_214_308_N.png,0,0,0,0,5,17,492,8,,,,,,,,,,,,,,,,,,,,,,,2023-04-07_19h10.54.195,FaceAttractiveness,2022.2.5,143.3163694789474,
treatment,0% Never,100% Always,images\FOREHEAD_006_M_F_N_A.png,0,0,0,0,5,18,493,0,,,,,,,,,,,,,,,,,,,,,,,2023-04-07_19h10.54.195,FaceAttractiveness,2022.2.5,143.3163694789474,
treatment,0% Never,100% Always,"images\ LCHEEK_CFD_AM_233_236_N.png
",0,0,0,0,5,19,494,26,,,,,,,,,,,,,,,,,,,,,,,2023-04-07_19h10.54.195,FaceAttractiveness,2022.2.5,143.3163694789474,
treatment,0% Never,100% Always,images\FOREHEAD_087_M_M_N_A.png,0,0,0,0,5,20,495,2,,,,,,,,,,,,,,,,,,,,,,,2023-04-07_19h10.54.195,FaceAttractiveness,2022.2.5,143.3163694789474,
treatment,0% Never,100% Always,images\ RCHEEK_CFD_AF_245_143_N.png,0,0,0,0,5,21,496,82,,,,,,,,,,,,,,,,,,,,,,,2023-04-07_19h10.54.195,FaceAttractiveness,2022.2.5,143.3163694789474,
treatment,0% Never,100% Always,images\ RCHEEK_087_M_M_N_A.png,0,0,0,0,5,22,497,78,,,,,,,,,,,,,,,,,,,,,,,2023-04-07_19h10.54.195,FaceAttractiveness,2022.2.5,143.3163694789474,
treatment,0% Never,100% Always,images\FOREHEAD_CFD_LM_203_026_N.png,0,0,0,0,5,23,498,14,,,,,,,,,,,,,,,,,,,,,,,2023-04-07_19h10.54.195,FaceAttractiveness,2022.2.5,143.3163694789474,
treatment,0% Never,100% Always,images\FOREHEAD_CFD_WF_250_167_N.png,0,0,0,0,5,24,499,17,,,,,,,,,,,,,,,,,,,,,,,2023-04-07_19h10.54.195,FaceAttractiveness,2022.2.5,143.3163694789474,
treatment,0% Never,100% Always,images\ LCHEEK_CFD_AF_237_223_N.png,0,0,0,0,5,25,500,24,,,,,,,,,,,,,,,,,,,,,,,2023-04-07_19h10.54.195,FaceAttractiveness,2022.2.5,143.3163694789474,
treatment,0% Never,100% Always,images\ LIP_CFD_AF_237_223_N.png,0,0,0,0,5,26,501,43,,,,,,,,,,,,,,,,,,,,,,,2023-04-07_19h10.54.195,FaceAttractiveness,2022.2.5,143.3163694789474,
treatment,0% Never,100% Always,images\FOREHEAD_CFD_AF_231_357_N.png,0,0,0,0,5,27,502,4,,,,,,,,,,,,,,,,,,,,,,,2023-04-07_19h10.54.195,FaceAttractiveness,2022.2.5,143.3163694789474,
treatment,0% Never,100% Always,images\ LCHEEK_CFD_WF_250_167_N.png,0,0,0,0,5,28,503,36,,,,,,,,,,,,,,,,,,,,,,,2023-04-07_19h10.54.195,FaceAttractiveness,2022.2.5,143.3163694789474,
treatment,0% Never,100% Always,images\ NASALTIP_CFD_WM_212_097_N.png,0,0,0,0,5,29,504,75,,,,,,,,,,,,,,,,,,,,,,,2023-04-07_19h10.54.195,FaceAttractiveness,2022.2.5,143.3163694789474,
treatment,0% Never,100% Always,images\ LIP_087_M_M_N_A.png,0,0,0,0,5,30,505,40,,,,,,,,,,,,,,,,,,,,,,,2023-04-07_19h10.54.195,FaceAttractiveness,2022.2.5,143.3163694789474,
treatment,0% Never,100% Always,images\ LIP_CFD_AF_231_357_N.png,0,0,0,0,5,31,506,42,,,,,,,,,,,,,,,,,,,,,,,2023-04-07_19h10.54.195,FaceAttractiveness,2022.2.5,143.3163694789474,
treatment,0% Never,100% Always,images\ NASALTIP_CFD_BM_213_134_N.png,0,0,0,0,5,32,507,67,,,,,,,,,,,,,,,,,,,,,,,2023-04-07_19h10.54.195,FaceAttractiveness,2022.2.5,143.3163694789474,
treatment,0% Never,100% Always,"images\ LIP_CFD_WF_002_004_N.png
",0,0,0,0,5,33,508,53,,,,,,,,,,,,,,,,,,,,,,,2023-04-07_19h10.54.195,FaceAttractiveness,2022.2.5,143.3163694789474,
treatment,0% Never,100% Always,images\ LCHEEK_CFD_LM_203_026_N.png,0,0,0,0,5,34,509,33,,,,,,,,,,,,,,,,,,,,,,,2023-04-07_19h10.54.195,FaceAttractiveness,2022.2.5,143.3163694789474,
treatment,0% Never,100% Always,"images\ LCHEEK_CFD_WF_002_004_N.png
",0,0,0,0,5,35,510,34,,,,,,,,,,,,,,,,,,,,,,,2023-04-07_19h10.54.195,FaceAttractiveness,2022.2.5,143.3163694789474,
treatment,0% Never,100% Always,images\ RCHEEK_CFD_LM_203_026_N.png,0,0,0,0,5,36,511,90,,,,,,,,,,,,,,,,,,,,,,,2023-04-07_19h10.54.195,FaceAttractiveness,2022.2.5,143.3163694789474,
treatment,0% Never,100% Always,"images\ LIP_CFD_BM_234_172_N.png
",0,0,0,0,5,37,512,49,,,,,,,,,,,,,,,,,,,,,,,2023-04-07_19h10.54.195,FaceAttractiveness,2022.2.5,143.3163694789474,
treatment,0% Never,100% Always,"images\ LCHEEK_CFD_BM_234_172_N.png
",0,0,0,0,5,38,513,30,,,,,,,,,,,,,,,,,,,,,,,2023-04-07_19h10.54.195,FaceAttractiveness,2022.2.5,143.3163694789474,
treatment,0% Never,100% Always,images\FOREHEAD_CFD_WF_002_004_N.png,0,0,0,0,5,39,514,15,,,,,,,,,,,,,,,,,,,,,,,2023-04-07_19h10.54.195,FaceAttractiveness,2022.2.5,143.3163694789474,
treatment,0% Never,100% Always,images\FOREHEAD_CFD_AF_245_143_N.png,0,0,0,0,5,40,515,6,,,,,,,,,,,,,,,,,,,,,,,2023-04-07_19h10.54.195,FaceAttractiveness,2022.2.5,143.3163694789474,
treatment,0% Never,100% Always,images\ LCHEEK_CFD_WF_200_099_N.png,0,0,0,0,5,41,516,35,,,,,,,,,,,,,,,,,,,,,,,2023-04-07_19h10.54.195,FaceAttractiveness,2022.2.5,143.3163694789474,
treatment,0% Never,100% Always,"images\ RCHEEK_136_M_M_N_A.png
",0,0,0,0,5,42,517,79,,,,,,,,,,,,,,,,,,,,,,,2023-04-07_19h10.54.195,FaceAttractiveness,2022.2.5,143.3163694789474,
treatment,0% Never,100% Always,images\ NASALTIP_CFD_LF_224_176_N.png,0,0,0,0,5,43,518,69,,,,,,,,,,,,,,,,,,,,,,,2023-04-07_19h10.54.195,FaceAttractiveness,2022.2.5,143.3163694789474,
treatment,0% Never,100% Always,images\ NASALTIP_CFD_BF_224_002_N.png,0,0,0,0,5,44,519,66,,,,,,,,,,,,,,,,,,,,,,,2023-04-07_19h10.54.195,FaceAttractiveness,2022.2.5,143.3163694789474,
treatment,0% Never,100% Always,images\ LCHEEK_CFD_AF_231_357_N.png,0,0,0,0,5,45,520,23,,,,,,,,,,,,,,,,,,,,,,,2023-04-07_19h10.54.195,FaceAttractiveness,2022.2.5,143.3163694789474,
treatment,0% Never,100% Always,images\FOREHEAD_CFD_AM_233_236_N.png,0,0,0,0,5,46,521,7,,,,,,,,,,,,,,,,,,,,,,,2023-04-07_19h10.54.195,FaceAttractiveness,2022.2.5,143.3163694789474,
treatment,0% Never,100% Always,images\FOREHEAD_136_M_M_N_A.png,0,0,0,0,5,47,522,3,,,,,,,,,,,,,,,,,,,,,,,2023-04-07_19h10.54.195,FaceAttractiveness,2022.2.5,143.3163694789474,
treatment,0% Never,100% Always,images\ LCHEEK_087_M_M_N_A.png,0,0,0,0,5,48,523,21,,,,,,,,,,,,,,,,,,,,,,,2023-04-07_19h10.54.195,FaceAttractiveness,2022.2.5,143.3163694789474,
treatment,0% Never,100% Always,images\FOREHEAD_CFD_WF_200_099_N.png,0,0,0,0,5,49,524,16,,,,,,,,,,,,,,,,,,,,,,,2023-04-07_19h10.54.195,FaceAttractiveness,2022.2.5,143.3163694789474,
treatment,0% Never,100% Always,images\ LIP_035_M_F_N_A.png,0,0,0,0,5,50,525,39,,,,,,,,,,,,,,,,,,,,,,,2023-04-07_19h10.54.195,FaceAttractiveness,2022.2.5,143.3163694789474,
treatment,0% Never,100% Always,images\FOREHEAD_CFD_AF_237_223_N.png,0,0,0,0,5,51,526,5,,,,,,,,,,,,,,,,,,,,,,,2023-04-07_19h10.54.195,FaceAttractiveness,2022.2.5,143.3163694789474,
treatment,0% Never,100% Always,images\FOREHEAD_CFD_LF_224_176_N.png,0,0,0,0,5,52,527,12,,,,,,,,,,,,,,,,,,,,,,,2023-04-07_19h10.54.195,FaceAttractiveness,2022.2.5,143.3163694789474,
treatment,0% Never,100% Always,images\FOREHEAD_CFD_BF_224_002_N.png,0,0,0,0,5,53,528,9,,,,,,,,,,,,,,,,,,,,,,,2023-04-07_19h10.54.195,FaceAttractiveness,2022.2.5,143.3163694789474,
treatment,0% Never,100% Always,images\FOREHEAD_035_M_F_N_A.png,0,0,0,0,5,54,529,1,,,,,,,,,,,,,,,,,,,,,,,2023-04-07_19h10.54.195,FaceAttractiveness,2022.2.5,143.3163694789474,
treatment,0% Never,100% Always,images\ LIP_CFD_WF_200_099_N.png,0,0,0,0,5,55,530,54,,,,,,,,,,,,,,,,,,,,,,,2023-04-07_19h10.54.195,FaceAttractiveness,2022.2.5,143.3163694789474,
treatment,0% Never,100% Always,images\FOREHEAD_CFD_BM_213_134_N.png,0,0,0,0,5,56,531,10,,,,,,,,,,,,,,,,,,,,,,,2023-04-07_19h10.54.195,FaceAttractiveness,2022.2.5,143.3163694789474,
treatment,0% Never,100% Always,images\ RCHEEK_CFD_LM_201_057_N.png,0,0,0,0,5,57,532,89,,,,,,,,,,,,,,,,,,,,,,,2023-04-07_19h10.54.195,FaceAttractiveness,2022.2.5,143.3163694789474,
treatment,0% Never,100% Always,images\FOREHEAD_CFD_WM_212_097_N.png,0,0,0,0,5,58,533,18,,,,,,,,,,,,,,,,,,,,,,,2023-04-07_19h10.54.195,FaceAttractiveness,2022.2.5,143.3163694789474,
treatment,0% Never,100% Always,images\ NASALTIP_CFD_AF_245_143_N.png,0,0,0,0,5,59,534,63,,,,,,,,,,,,,,,,,,,,,,,2023-04-07_19h10.54.195,FaceAttractiveness,2022.2.5,143.3163694789474,
treatment,0% Never,100% Always,images\ NASALTIP_CFD_WF_250_167_N.png,0,0,0,0,5,60,535,74,,,,,,,,,,,,,,,,,,,,,,,2023-04-07_19h10.54.195,FaceAttractiveness,2022.2.5,143.3163694789474,
treatment,0% Never,100% Always,images\ RCHEEK_CFD_LF_224_176_N.png,0,0,0,0,5,61,536,88,,,,,,,,,,,,,,,,,,,,,,,2023-04-07_19h10.54.195,FaceAttractiveness,2022.2.5,143.3163694789474,
treatment,0% Never,100% Always,images\ NASALTIP_CFD_WF_200_099_N.png,0,0,0,0,5,62,537,73,,,,,,,,,,,,,,,,,,,,,,,2023-04-07_19h10.54.195,FaceAttractiveness,2022.2.5,143.3163694789474,
treatment,0% Never,100% Always,images\ LCHEEK_CFD_BM_213_134_N.png,0,0,0,0,5,63,538,29,,,,,,,,,,,,,,,,,,,,,,,2023-04-07_19h10.54.195,FaceAttractiveness,2022.2.5,143.3163694789474,
treatment,0% Never,100% Always,"images\ LIP_136_M_M_N_A.png
",0,0,0,0,5,64,539,41,,,,,,,,,,,,,,,,,,,,,,,2023-04-07_19h10.54.195,FaceAttractiveness,2022.2.5,143.3163694789474,
treatment,0% Never,100% Always,images\ NASALTIP_CFD_LM_201_057_N.png,0,0,0,0,5,65,540,70,,,,,,,,,,,,,,,,,,,,,,,2023-04-07_19h10.54.195,FaceAttractiveness,2022.2.5,143.3163694789474,
treatment,0% Never,100% Always,"images\ RCHEEK_CFD_WF_002_004_N.png
",0,0,0,0,5,66,541,91,,,,,,,,,,,,,,,,,,,,,,,2023-04-07_19h10.54.195,FaceAttractiveness,2022.2.5,143.3163694789474,
treatment,0% Never,100% Always,images\ LIP_CFD_LM_201_057_N.png,0,0,0,0,5,67,542,51,,,,,,,,,,,,,,,,,,,,,,,2023-04-07_19h10.54.195,FaceAttractiveness,2022.2.5,143.3163694789474,
treatment,0% Never,100% Always,images\ LIP_CFD_LM_203_026_N.png,0,0,0,0,5,68,543,52,,,,,,,,,,,,,,,,,,,,,,,2023-04-07_19h10.54.195,FaceAttractiveness,2022.2.5,143.3163694789474,
treatment,0% Never,100% Always,"images\ LCHEEK_136_M_M_N_A.png
",0,0,0,0,5,69,544,22,,,,,,,,,,,,,,,,,,,,,,,2023-04-07_19h10.54.195,FaceAttractiveness,2022.2.5,143.3163694789474,
treatment,0% Never,100% Always,images\ NASALTIP_035_M_F_N_A.png,0,0,0,0,5,70,545,58,,,,,,,,,,,,,,,,,,,,,,,2023-04-07_19h10.54.195,FaceAttractiveness,2022.2.5,143.3163694789474,
treatment,0% Never,100% Always,images\ RCHEEK_CFD_WF_250_167_N.png,0,0,0,0,5,71,546,93,,,,,,,,,,,,,,,,,,,,,,,2023-04-07_19h10.54.195,FaceAttractiveness,2022.2.5,143.3163694789474,
treatment,0% Never,100% Always,images\ NASALTIP_087_M_M_N_A.png,0,0,0,0,5,72,547,59,,,,,,,,,,,,,,,,,,,,,,,2023-04-07_19h10.54.195,FaceAttractiveness,2022.2.5,143.3163694789474,
treatment,0% Never,100% Always,images\ LIP_CFD_WM_212_097_N.png,0,0,0,0,5,73,548,56,,,,,,,,,,,,,,,,,,,,,,,2023-04-07_19h10.54.195,FaceAttractiveness,2022.2.5,143.3163694789474,
treatment,0% Never,100% Always,images\ LIP_CFD_BM_213_134_N.png,0,0,0,0,5,74,549,48,,,,,,,,,,,,,,,,,,,,,,,2023-04-07_19h10.54.195,FaceAttractiveness,2022.2.5,143.3163694789474,
treatment,0% Never,100% Always,images\ RCHEEK_CFD_WM_212_097_N.png,0,0,0,0,5,75,550,94,,,,,,,,,,,,,,,,,,,,,,,2023-04-07_19h10.54.195,FaceAttractiveness,2022.2.5,143.3163694789474,
treatment,0% Never,100% Always,images\ NASALTIP_CFD_BF_214_308_N.png,0,0,0,0,5,76,551,65,,,,,,,,,,,,,,,,,,,,,,,2023-04-07_19h10.54.195,FaceAttractiveness,2022.2.5,143.3163694789474,
treatment,0% Never,100% Always,images\ RCHEEK_035_M_F_N_A.png,0,0,0,0,5,77,552,77,,,,,,,,,,,,,,,,,,,,,,,2023-04-07_19h10.54.195,FaceAttractiveness,2022.2.5,143.3163694789474,
treatment,0% Never,100% Always,images\ LIP_CFD_BF_224_002_N.png,0,0,0,0,5,78,553,47,,,,,,,,,,,,,,,,,,,,,,,2023-04-07_19h10.54.195,FaceAttractiveness,2022.2.5,143.3163694789474,
treatment,0% Never,100% Always,images\FOREHEAD_CFD_LM_201_057_N.png,0,0,0,0,5,79,554,13,,,,,,,,,,,,,,,,,,,,,,,2023-04-07_19h10.54.195,FaceAttractiveness,2022.2.5,143.3163694789474,
