mouse.x,mouse.y,mouse.leftButton,mouse.midButton,mouse.rightButton,onsetTime,leftText,rightText,sliderDirection,face,lesion,block,slider.response,slider.rt,mouse_5.x,mouse_5.y,mouse_5.leftButton,mouse_5.midButton,mouse_5.rightButton,mouse_5.clicked_name,ITI,originalFaceTrials.thisRepN,originalFaceTrials.thisTrialN,originalFaceTrials.thisN,originalFaceTrials.thisIndex,originalFaceTrials.ran,Name,Gender,Age,Ethnicity,date,expName,psychopyVersion,OS,frameRate,RatingBlockOrder.thisRepN,RatingBlockOrder.thisTrialN,RatingBlockOrder.thisN,RatingBlockOrder.thisIndex,RatingBlockOrder.ran,Task,LeftLabel,RightLabel
0.03515625,-0.010416667,1,0,0,1.3842,Extremely  Attractive,Extremely Unattractive,normal,CFD_WM_212_097_N.png,FOREHEAD,0,50.52083333,17.2475,0.049479167,-0.368489583,1,0,0,NextBu,0.69317451,0,0,0,0,1,a,f,41,indian,2022-07-29_14h02.07.534,FaceAttractiveness,2022.2.2,Win32,60.33546519,,,,,,,,
,,,,,20.613,Extremely  Attractive,Extremely Unattractive,normal,CFD_WF_250_167_N.png,FOREHEAD,0,75,4.1352,-0.006510417,-0.41015625,1,0,0,NextBu,0.868068207,1,0,1,0,1,a,f,41,indian,2022-07-29_14h02.07.534,FaceAttractiveness,2022.2.2,Win32,60.33546519,,,,,,,,
,,,,,26.4613,Extremely  Attractive,Extremely Unattractive,normal,CFD_WF_200_099_N.png,LCHEEK,0,49.86979167,3.9641,0.00390625,-0.38671875,1,0,0,NextBu,0.759023866,2,0,2,0,1,a,f,41,indian,2022-07-29_14h02.07.534,FaceAttractiveness,2022.2.2,Win32,60.33546519,,,,,,,,
,,,,,31.7782,Extremely  Attractive,Extremely Unattractive,normal,CFD_WF_002_004_N.png,LCHEEK,0,74.34895833,1.9461,0.07421875,-0.373697917,1,0,0,NextBu,0.933468514,3,0,3,0,1,a,f,41,indian,2022-07-29_14h02.07.534,FaceAttractiveness,2022.2.2,Win32,60.33546519,,,,,,,,
,,,,,35.3235,Extremely  Attractive,Extremely Unattractive,normal,CFD_LM_203_026_N.png,RCHEEK,0,74.86979167,5.2485,0.04296875,-0.37109375,1,0,0,NextBu,0.888826944,4,0,4,0,1,a,f,41,indian,2022-07-29_14h02.07.534,FaceAttractiveness,2022.2.2,Win32,60.33546519,,,,,,,,
,,,,,42.1155,Extremely  Attractive,Extremely Unattractive,normal,CFD_LM_201_057_N.png,FOREHEAD,0,24.86979167,1.8807,-0.01953125,-0.385416667,1,0,0,NextBu,0.791159723,5,0,5,0,1,a,f,41,indian,2022-07-29_14h02.07.534,FaceAttractiveness,2022.2.2,Win32,60.33546519,,,,,,,,
,,,,,45.5276,Extremely  Attractive,Extremely Unattractive,normal,CFD_LF_224_176_N.png,RCHEEK,0,24.73958333,1.6523,-0.048177083,-0.37890625,1,0,0,NextBu,0.733188638,6,0,6,0,1,a,f,41,indian,2022-07-29_14h02.07.534,FaceAttractiveness,2022.2.2,Win32,60.33546519,,,,,,,,
,,,,,48.5591,Extremely  Attractive,Extremely Unattractive,normal,CFD_BM_234_172_N.png,LIP,0,51.30208333,1.5135,0.00390625,-0.375,1,0,0,NextBu,0.661151391,7,0,7,0,1,a,f,41,indian,2022-07-29_14h02.07.534,FaceAttractiveness,2022.2.2,Win32,60.33546519,,,,,,,,
,,,,,51.3422,Extremely  Attractive,Extremely Unattractive,normal,CFD_BM_213_134_N.png,NASALTIP,0,25.91145833,3.31,-0.020833333,-0.391927083,1,0,0,NextBu,0.760092952,8,0,8,0,1,a,f,41,indian,2022-07-29_14h02.07.534,FaceAttractiveness,2022.2.2,Win32,60.33546519,,,,,,,,
,,,,,56.1456,Extremely  Attractive,Extremely Unattractive,normal,CFD_BF_224_002_N.png,FOREHEAD,0,49.47916667,2.5734,-0.009114583,-0.41015625,1,0,0,NextBu,0.593301235,9,0,9,0,1,a,f,41,indian,2022-07-29_14h02.07.534,FaceAttractiveness,2022.2.2,Win32,60.33546519,,,,,,,,
,,,,,59.8565,Extremely  Attractive,Extremely Unattractive,normal,CFD_BF_214_308_N.png,RCHEEK,0,29.03645833,2.9074,-0.018229167,-0.385416667,1,0,0,NextBu,0.704111979,10,0,10,0,1,a,f,41,indian,2022-07-29_14h02.07.534,FaceAttractiveness,2022.2.2,Win32,60.33546519,,,,,,,,
,,,,,64.2135,Extremely  Attractive,Extremely Unattractive,normal,CFD_AM_233_236_N.png,LIP,0,76.30208333,10.8944,0.069010417,-0.389322917,1,0,0,NextBu,0.904075833,11,0,11,0,1,a,f,41,indian,2022-07-29_14h02.07.534,FaceAttractiveness,2022.2.2,Win32,60.33546519,,,,,,,,
,,,,,76.6706,Extremely  Attractive,Extremely Unattractive,normal,CFD_AF_245_143_N.png,LCHEEK,0,21.74479167,2.3904,-0.014322917,-0.388020833,1,0,0,NextBu,0.975260576,12,0,12,0,1,a,f,41,indian,2022-07-29_14h02.07.534,FaceAttractiveness,2022.2.2,Win32,60.33546519,,,,,,,,
,,,,,80.7626,Extremely  Attractive,Extremely Unattractive,normal,CFD_AF_237_223_N.png,LCHEEK,0,23.046875,2.3705,-0.05078125,-0.37109375,1,0,0,NextBu,0.536899339,13,0,13,0,1,a,f,41,indian,2022-07-29_14h02.07.534,FaceAttractiveness,2022.2.2,Win32,60.33546519,,,,,,,,
,,,,,84.258,Extremely  Attractive,Extremely Unattractive,normal,CFD_AF_231_357_N.png,LIP,0,24.609375,4.8497,-0.024739583,-0.384114583,1,0,0,NextBu,0.728437399,14,0,14,0,1,a,f,41,indian,2022-07-29_14h02.07.534,FaceAttractiveness,2022.2.2,Win32,60.33546519,,,,,,,,
,,,,,90.619,Extremely  Attractive,Extremely Unattractive,normal,136_M_M_N_A.png,LIP,0,49.34895833,2.6729,0.022135417,-0.376302083,1,0,0,NextBu,0.79690212,15,0,15,0,1,a,f,41,indian,2022-07-29_14h02.07.534,FaceAttractiveness,2022.2.2,Win32,60.33546519,,,,,,,,
,,,,,94.7604,Extremely  Attractive,Extremely Unattractive,normal,087_M_M_N_A.png,LIP,0,14.97395833,3.0434,-0.005208333,-0.395833333,1,0,0,NextBu,0.642185309,16,0,16,0,1,a,f,41,indian,2022-07-29_14h02.07.534,FaceAttractiveness,2022.2.2,Win32,60.33546519,,,,,,,,
,,,,,99.2329,Extremely  Attractive,Extremely Unattractive,normal,035_M_F_N_A.png,NASALTIP,0,61.58854167,2.7946,0.00390625,-0.3984375,1,0,0,NextBu,0.784402624,17,0,17,0,1,a,f,41,indian,2022-07-29_14h02.07.534,FaceAttractiveness,2022.2.2,Win32,60.33546519,,,,,,,,
,,,,,103.4571,Extremely  Attractive,Extremely Unattractive,normal,006_M_F_N_A.png,NASALTIP,0,25.91145833,4.3296,-0.032552083,-0.385416667,1,0,0,NextBu,0.987621077,18,0,18,0,1,a,f,41,indian,2022-07-29_14h02.07.534,FaceAttractiveness,2022.2.2,Win32,60.33546519,,,,,,,,
,,,,,109.536,Extremely  Attractive,Extremely Unattractive,normal,CFD_WM_212_097_N.png,NASALTIP,1,25.91145833,2.2597,-0.01171875,-0.361979167,1,0,0,NextBu,0.932592971,19,0,19,0,1,a,f,41,indian,2022-07-29_14h02.07.534,FaceAttractiveness,2022.2.2,Win32,60.33546519,,,,,,,,
,,,,,113.3956,Extremely  Attractive,Extremely Unattractive,normal,CFD_WF_250_167_N.png,NASALTIP,1,72.39583333,2.7049,0.01953125,-0.401041667,1,0,0,NextBu,0.59450311,20,0,20,0,1,a,f,41,indian,2022-07-29_14h02.07.534,FaceAttractiveness,2022.2.2,Win32,60.33546519,,,,,,,,
,,,,,117.372,Extremely  Attractive,Extremely Unattractive,normal,CFD_WF_200_099_N.png,RCHEEK,1,35.9375,1.7838,0.015625,-0.3828125,1,0,0,NextBu,0.5531072,21,0,21,0,1,a,f,41,indian,2022-07-29_14h02.07.534,FaceAttractiveness,2022.2.2,Win32,60.33546519,,,,,,,,
,,,,,120.3539,Extremely  Attractive,Extremely Unattractive,normal,CFD_WF_002_004_N.png,FOREHEAD,1,76.5625,4.0127,0.033854167,-0.380208333,1,0,0,NextBu,0.565376225,22,0,22,0,1,a,f,41,indian,2022-07-29_14h02.07.534,FaceAttractiveness,2022.2.2,Win32,60.33546519,,,,,,,,
,,,,,125.6872,Extremely  Attractive,Extremely Unattractive,normal,CFD_LM_203_026_N.png,LIP,1,65.49479167,2.3476,0.053385417,-0.416666667,1,0,0,NextBu,0.533230613,23,0,23,0,1,a,f,41,indian,2022-07-29_14h02.07.534,FaceAttractiveness,2022.2.2,Win32,60.33546519,,,,,,,,
,,,,,129.233,Extremely  Attractive,Extremely Unattractive,normal,CFD_LM_201_057_N.png,RCHEEK,1,33.59375,1.5706,0.00390625,-0.404947917,1,0,0,NextBu,0.846158654,24,0,24,0,1,a,f,41,indian,2022-07-29_14h02.07.534,FaceAttractiveness,2022.2.2,Win32,60.33546519,,,,,,,,
,,,,,132.2805,Extremely  Attractive,Extremely Unattractive,normal,CFD_LF_224_176_N.png,LIP,1,28.515625,1.71,-0.010416667,-0.3984375,1,0,0,NextBu,0.6003646,25,0,25,0,1,a,f,41,indian,2022-07-29_14h02.07.534,FaceAttractiveness,2022.2.2,Win32,60.33546519,,,,,,,,
,,,,,135.2119,Extremely  Attractive,Extremely Unattractive,normal,CFD_BM_234_172_N.png,LCHEEK,1,50.390625,1.4877,0.01171875,-0.390625,1,0,0,NextBu,0.880162135,26,0,26,0,1,a,f,41,indian,2022-07-29_14h02.07.534,FaceAttractiveness,2022.2.2,Win32,60.33546519,,,,,,,,
,,,,,138.1455,Extremely  Attractive,Extremely Unattractive,normal,CFD_BM_213_134_N.png,LCHEEK,1,40.625,1.1701,-0.001302083,-0.407552083,1,0,0,NextBu,0.995075229,27,0,27,0,1,a,f,41,indian,2022-07-29_14h02.07.534,FaceAttractiveness,2022.2.2,Win32,60.33546519,,,,,,,,
,,,,,140.9117,Extremely  Attractive,Extremely Unattractive,normal,CFD_BF_224_002_N.png,RCHEEK,1,36.84895833,2.5316,0.029947917,-0.404947917,1,0,0,NextBu,0.97952311,28,0,28,0,1,a,f,41,indian,2022-07-29_14h02.07.534,FaceAttractiveness,2022.2.2,Win32,60.33546519,,,,,,,,
,,,,,144.9536,Extremely  Attractive,Extremely Unattractive,normal,CFD_BF_214_308_N.png,FOREHEAD,1,25.78125,1.6497,0.029947917,-0.399739583,1,0,0,NextBu,0.538369543,29,0,29,0,1,a,f,41,indian,2022-07-29_14h02.07.534,FaceAttractiveness,2022.2.2,Win32,60.33546519,,,,,,,,
,,,,,147.72,Extremely  Attractive,Extremely Unattractive,normal,CFD_AM_233_236_N.png,LCHEEK,1,40.36458333,1.7783,0.00390625,-0.397135417,1,0,0,NextBu,0.571473644,30,0,30,0,1,a,f,41,indian,2022-07-29_14h02.07.534,FaceAttractiveness,2022.2.2,Win32,60.33546519,,,,,,,,
,,,,,150.6515,Extremely  Attractive,Extremely Unattractive,normal,CFD_AF_245_143_N.png,NASALTIP,1,20.3125,1.4645,-0.044270833,-0.412760417,1,0,0,NextBu,0.915031903,31,0,31,0,1,a,f,41,indian,2022-07-29_14h02.07.534,FaceAttractiveness,2022.2.2,Win32,60.33546519,,,,,,,,
,,,,,153.5833,Extremely  Attractive,Extremely Unattractive,normal,CFD_AF_237_223_N.png,RCHEEK,1,30.33854167,1.3395,-0.022135417,-0.389322917,1,0,0,NextBu,0.905289069,32,0,32,0,1,a,f,41,indian,2022-07-29_14h02.07.534,FaceAttractiveness,2022.2.2,Win32,60.33546519,,,,,,,,
,,,,,156.334,Extremely  Attractive,Extremely Unattractive,normal,CFD_AF_231_357_N.png,RCHEEK,1,33.203125,1.3814,-0.01953125,-0.365885417,1,0,0,NextBu,0.779425179,33,0,33,0,1,a,f,41,indian,2022-07-29_14h02.07.534,FaceAttractiveness,2022.2.2,Win32,60.33546519,,,,,,,,
,,,,,158.9515,Extremely  Attractive,Extremely Unattractive,normal,136_M_M_N_A.png,RCHEEK,1,49.47916667,2.1158,0.01953125,-0.401041667,1,0,0,NextBu,0.957181851,34,0,34,0,1,a,f,41,indian,2022-07-29_14h02.07.534,FaceAttractiveness,2022.2.2,Win32,60.33546519,,,,,,,,
,,,,,162.5297,Extremely  Attractive,Extremely Unattractive,normal,087_M_M_N_A.png,RCHEEK,1,11.45833333,1.5377,0.03515625,-0.389322917,1,0,0,NextBu,0.859020461,35,0,35,0,1,a,f,41,indian,2022-07-29_14h02.07.534,FaceAttractiveness,2022.2.2,Win32,60.33546519,,,,,,,,
,,,,,165.6597,Extremely  Attractive,Extremely Unattractive,normal,035_M_F_N_A.png,FOREHEAD,1,50.13020833,1.5352,0.014322917,-0.372395833,1,0,0,NextBu,0.60914954,36,0,36,0,1,a,f,41,indian,2022-07-29_14h02.07.534,FaceAttractiveness,2022.2.2,Win32,60.33546519,,,,,,,,
,,,,,168.2776,Extremely  Attractive,Extremely Unattractive,normal,006_M_F_N_A.png,FOREHEAD,1,33.07291667,1.4474,0.018229167,-0.390625,1,0,0,NextBu,0.692088061,37,0,37,0,1,a,f,41,indian,2022-07-29_14h02.07.534,FaceAttractiveness,2022.2.2,Win32,60.33546519,,,,,,,,
,,,,,170.9448,Extremely  Attractive,Extremely Unattractive,normal,CFD_WM_212_097_N.png,LCHEEK,2,30.20833333,2.0826,-0.03515625,-0.388020833,1,0,0,NextBu,0.983452477,38,0,38,0,1,a,f,41,indian,2022-07-29_14h02.07.534,FaceAttractiveness,2022.2.2,Win32,60.33546519,,,,,,,,
,,,,,174.5556,Extremely  Attractive,Extremely Unattractive,normal,CFD_WF_250_167_N.png,RCHEEK,2,49.609375,1.8953,0.014322917,-0.38671875,1,0,0,NextBu,0.862129579,39,0,39,0,1,a,f,41,indian,2022-07-29_14h02.07.534,FaceAttractiveness,2022.2.2,Win32,60.33546519,,,,,,,,
,,,,,177.7366,Extremely  Attractive,Extremely Unattractive,normal,CFD_WF_200_099_N.png,FOREHEAD,2,28.90625,1.2812,-0.04296875,-0.404947917,1,0,0,NextBu,0.715511806,40,0,40,0,1,a,f,41,indian,2022-07-29_14h02.07.534,FaceAttractiveness,2022.2.2,Win32,60.33546519,,,,,,,,
,,,,,180.387,Extremely  Attractive,Extremely Unattractive,normal,CFD_WF_002_004_N.png,NASALTIP,2,82.03125,1.4162,0.020833333,-0.395833333,1,0,0,NextBu,0.758274157,41,0,41,0,1,a,f,41,indian,2022-07-29_14h02.07.534,FaceAttractiveness,2022.2.2,Win32,60.33546519,,,,,,,,
,,,,,183.2687,Extremely  Attractive,Extremely Unattractive,normal,CFD_LM_203_026_N.png,NASALTIP,2,59.375,1.3661,-0.001302083,-0.376302083,1,0,0,NextBu,0.684264987,42,0,42,0,1,a,f,41,indian,2022-07-29_14h02.07.534,FaceAttractiveness,2022.2.2,Win32,60.33546519,,,,,,,,
,,,,,185.9191,Extremely  Attractive,Extremely Unattractive,normal,CFD_LM_201_057_N.png,LIP,2,28.38541667,1.1802,-0.02734375,-0.403645833,1,0,0,NextBu,0.962137484,43,0,43,0,1,a,f,41,indian,2022-07-29_14h02.07.534,FaceAttractiveness,2022.2.2,Win32,60.33546519,,,,,,,,
,,,,,188.5536,Extremely  Attractive,Extremely Unattractive,normal,CFD_LF_224_176_N.png,LCHEEK,2,33.33333333,1.2824,-0.04296875,-0.3984375,1,0,0,NextBu,0.73919295,44,0,44,0,1,a,f,41,indian,2022-07-29_14h02.07.534,FaceAttractiveness,2022.2.2,Win32,60.33546519,,,,,,,,
,,,,,191.1876,Extremely  Attractive,Extremely Unattractive,normal,CFD_BM_234_172_N.png,FOREHEAD,2,49.34895833,1.3524,0.018229167,-0.40625,1,0,0,NextBu,0.620294074,45,0,45,0,1,a,f,41,indian,2022-07-29_14h02.07.534,FaceAttractiveness,2022.2.2,Win32,60.33546519,,,,,,,,
,,,,,193.7386,Extremely  Attractive,Extremely Unattractive,normal,CFD_BM_213_134_N.png,RCHEEK,2,36.06770833,1.3365,-0.036458333,-0.360677083,1,0,0,NextBu,0.989085182,46,0,46,0,1,a,f,41,indian,2022-07-29_14h02.07.534,FaceAttractiveness,2022.2.2,Win32,60.33546519,,,,,,,,
,,,,,196.5052,Extremely  Attractive,Extremely Unattractive,normal,CFD_BF_224_002_N.png,LIP,2,39.71354167,1.1219,-0.02734375,-0.390625,1,0,0,NextBu,0.930122263,47,0,47,0,1,a,f,41,indian,2022-07-29_14h02.07.534,FaceAttractiveness,2022.2.2,Win32,60.33546519,,,,,,,,
,,,,,199.1718,Extremely  Attractive,Extremely Unattractive,normal,CFD_BF_214_308_N.png,NASALTIP,2,25.91145833,1.4079,-0.016927083,-0.421875,1,0,0,NextBu,0.706323404,48,0,48,0,1,a,f,41,indian,2022-07-29_14h02.07.534,FaceAttractiveness,2022.2.2,Win32,60.33546519,,,,,,,,
,,,,,201.7898,Extremely  Attractive,Extremely Unattractive,normal,CFD_AM_233_236_N.png,RCHEEK,2,36.45833333,1.2213,0.02734375,-0.408854167,1,0,0,NextBu,0.722232864,49,0,49,0,1,a,f,41,indian,2022-07-29_14h02.07.534,FaceAttractiveness,2022.2.2,Win32,60.33546519,,,,,,,,
,,,,,204.2082,Extremely  Attractive,Extremely Unattractive,normal,CFD_AF_245_143_N.png,FOREHEAD,2,15.49479167,1.4189,-0.016927083,-0.380208333,1,0,0,NextBu,0.935584949,50,0,50,0,1,a,f,41,indian,2022-07-29_14h02.07.534,FaceAttractiveness,2022.2.2,Win32,60.33546519,,,,,,,,
,,,,,207.1735,Extremely  Attractive,Extremely Unattractive,normal,CFD_AF_237_223_N.png,LIP,2,31.11979167,2.4907,-0.059895833,-0.375,1,0,0,NextBu,0.773183533,51,0,51,0,1,a,f,41,indian,2022-07-29_14h02.07.534,FaceAttractiveness,2022.2.2,Win32,60.33546519,,,,,,,,
,,,,,210.9508,Extremely  Attractive,Extremely Unattractive,normal,CFD_AF_231_357_N.png,LCHEEK,2,36.06770833,1.329,-0.04296875,-0.390625,1,0,0,NextBu,0.634033207,52,0,52,0,1,a,f,41,indian,2022-07-29_14h02.07.534,FaceAttractiveness,2022.2.2,Win32,60.33546519,,,,,,,,
,,,,,213.3527,Extremely  Attractive,Extremely Unattractive,normal,136_M_M_N_A.png,NASALTIP,2,49.21875,1.3972,-0.013020833,-0.381510417,1,0,0,NextBu,0.949667821,53,0,53,0,1,a,f,41,indian,2022-07-29_14h02.07.534,FaceAttractiveness,2022.2.2,Win32,60.33546519,,,,,,,,
,,,,,216.1678,Extremely  Attractive,Extremely Unattractive,normal,087_M_M_N_A.png,NASALTIP,2,14.84375,1.3069,0.009114583,-0.385416667,1,0,0,NextBu,0.587138984,54,0,54,0,1,a,f,41,indian,2022-07-29_14h02.07.534,FaceAttractiveness,2022.2.2,Win32,60.33546519,,,,,,,,
,,,,,218.5542,Extremely  Attractive,Extremely Unattractive,normal,035_M_F_N_A.png,RCHEEK,2,50.13020833,1.3688,-0.0234375,-0.384114583,1,0,0,NextBu,0.746357543,55,0,55,0,1,a,f,41,indian,2022-07-29_14h02.07.534,FaceAttractiveness,2022.2.2,Win32,60.33546519,,,,,,,,
,,,,,221.0885,Extremely  Attractive,Extremely Unattractive,normal,006_M_F_N_A.png,RCHEEK,2,30.46875,1.2346,-0.036458333,-0.390625,1,0,0,NextBu,0.941039842,56,0,56,0,1,a,f,41,indian,2022-07-29_14h02.07.534,FaceAttractiveness,2022.2.2,Win32,60.33546519,,,,,,,,
,,,,,223.6727,Extremely  Attractive,Extremely Unattractive,normal,CFD_WM_212_097_N.png,RCHEEK,3,15.10416667,1.2183,-0.055989583,-0.407552083,1,0,0,NextBu,0.683809385,57,0,57,0,1,a,f,41,indian,2022-07-29_14h02.07.534,FaceAttractiveness,2022.2.2,Win32,60.33546519,,,,,,,,
,,,,,226.0748,Extremely  Attractive,Extremely Unattractive,normal,CFD_WF_250_167_N.png,LIP,3,35.28645833,1.1522,-0.0625,-0.397135417,1,0,0,NextBu,0.710941006,58,0,58,0,1,a,f,41,indian,2022-07-29_14h02.07.534,FaceAttractiveness,2022.2.2,Win32,60.33546519,,,,,,,,
,,,,,228.4114,Extremely  Attractive,Extremely Unattractive,normal,CFD_WF_200_099_N.png,NASALTIP,3,29.16666667,1.4312,-0.005208333,-0.380208333,1,0,0,NextBu,0.823477602,59,0,59,0,1,a,f,41,indian,2022-07-29_14h02.07.534,FaceAttractiveness,2022.2.2,Win32,60.33546519,,,,,,,,
,,,,,231.0608,Extremely  Attractive,Extremely Unattractive,normal,CFD_WF_002_004_N.png,LIP,3,84.24479167,1.4482,0.032552083,-0.37890625,1,0,0,NextBu,0.893466413,60,0,60,0,1,a,f,41,indian,2022-07-29_14h02.07.534,FaceAttractiveness,2022.2.2,Win32,60.33546519,,,,,,,,
,,,,,234.0585,Extremely  Attractive,Extremely Unattractive,normal,CFD_LM_203_026_N.png,FOREHEAD,3,67.31770833,0.9152,0.0546875,-0.364583333,1,0,0,NextBu,0.611337801,61,0,61,0,1,a,f,41,indian,2022-07-29_14h02.07.534,FaceAttractiveness,2022.2.2,Win32,60.33546519,,,,,,,,
,,,,,236.0804,Extremely  Attractive,Extremely Unattractive,normal,CFD_LM_201_057_N.png,LCHEEK,3,35.80729167,1.2457,0.048177083,-0.411458333,1,0,0,NextBu,0.996961537,62,0,62,0,1,a,f,41,indian,2022-07-29_14h02.07.534,FaceAttractiveness,2022.2.2,Win32,60.33546519,,,,,,,,
,,,,,238.8632,Extremely  Attractive,Extremely Unattractive,normal,CFD_LF_224_176_N.png,FOREHEAD,3,27.34375,4.1717,-0.02734375,-0.395833333,1,0,0,NextBu,0.56078749,63,0,63,0,1,a,f,41,indian,2022-07-29_14h02.07.534,FaceAttractiveness,2022.2.2,Win32,60.33546519,,,,,,,,
,,,,,244.1974,Extremely  Attractive,Extremely Unattractive,normal,CFD_BM_234_172_N.png,NASALTIP,3,49.73958333,1.6533,-0.0078125,-0.375,1,0,0,NextBu,0.724743281,64,0,64,0,1,a,f,41,indian,2022-07-29_14h02.07.534,FaceAttractiveness,2022.2.2,Win32,60.33546519,,,,,,,,
,,,,,247.0635,Extremely  Attractive,Extremely Unattractive,normal,CFD_BM_213_134_N.png,FOREHEAD,3,33.59375,1.1872,0.001302083,-0.389322917,1,0,0,NextBu,0.676055742,65,0,65,0,1,a,f,41,indian,2022-07-29_14h02.07.534,FaceAttractiveness,2022.2.2,Win32,60.33546519,,,,,,,,
,,,,,249.3346,Extremely  Attractive,Extremely Unattractive,normal,CFD_BF_224_002_N.png,LCHEEK,3,37.63020833,1.461,-0.0703125,-0.40625,1,0,0,NextBu,0.942260253,66,0,66,0,1,a,f,41,indian,2022-07-29_14h02.07.534,FaceAttractiveness,2022.2.2,Win32,60.33546519,,,,,,,,
,,,,,252.1987,Extremely  Attractive,Extremely Unattractive,normal,CFD_BF_214_308_N.png,LIP,3,19.53125,1.2129,-0.048177083,-0.391927083,1,0,0,NextBu,0.691349319,67,0,67,0,1,a,f,41,indian,2022-07-29_14h02.07.534,FaceAttractiveness,2022.2.2,Win32,60.33546519,,,,,,,,
,,,,,254.5508,Extremely  Attractive,Extremely Unattractive,normal,CFD_AM_233_236_N.png,NASALTIP,3,31.77083333,1.3001,-0.015625,-0.368489583,1,0,0,NextBu,0.576400974,68,0,68,0,1,a,f,41,indian,2022-07-29_14h02.07.534,FaceAttractiveness,2022.2.2,Win32,60.33546519,,,,,,,,
,,,,,256.8371,Extremely  Attractive,Extremely Unattractive,normal,CFD_AF_245_143_N.png,LIP,3,17.578125,1.4216,-0.04296875,-0.365885417,1,0,0,NextBu,0.803462438,69,0,69,0,1,a,f,41,indian,2022-07-29_14h02.07.534,FaceAttractiveness,2022.2.2,Win32,60.33546519,,,,,,,,
,,,,,259.4709,Extremely  Attractive,Extremely Unattractive,normal,CFD_AF_237_223_N.png,FOREHEAD,3,33.07291667,1.5733,-0.024739583,-0.404947917,1,0,0,NextBu,0.92619338,70,0,70,0,1,a,f,41,indian,2022-07-29_14h02.07.534,FaceAttractiveness,2022.2.2,Win32,60.33546519,,,,,,,,
,,,,,262.4858,Extremely  Attractive,Extremely Unattractive,normal,CFD_AF_231_357_N.png,NASALTIP,3,39.58333333,1.2816,-0.05078125,-0.391927083,1,0,0,NextBu,0.625511289,71,0,71,0,1,a,f,41,indian,2022-07-29_14h02.07.534,FaceAttractiveness,2022.2.2,Win32,60.33546519,,,,,,,,
,,,,,264.9043,Extremely  Attractive,Extremely Unattractive,normal,136_M_M_N_A.png,FOREHEAD,3,50.390625,1.6605,-0.005208333,-0.388020833,1,0,0,NextBu,0.653064062,72,0,72,0,1,a,f,41,indian,2022-07-29_14h02.07.534,FaceAttractiveness,2022.2.2,Win32,60.33546519,,,,,,,,
,,,,,267.6541,Extremely  Attractive,Extremely Unattractive,normal,087_M_M_N_A.png,FOREHEAD,3,9.635416667,1.2952,0.01953125,-0.385416667,1,0,0,NextBu,0.982110141,73,0,73,0,1,a,f,41,indian,2022-07-29_14h02.07.534,FaceAttractiveness,2022.2.2,Win32,60.33546519,,,,,,,,
,,,,,270.4205,Extremely  Attractive,Extremely Unattractive,normal,035_M_F_N_A.png,LIP,3,54.55729167,2.0429,-0.014322917,-0.4140625,1,0,0,NextBu,0.525582058,74,0,74,0,1,a,f,41,indian,2022-07-29_14h02.07.534,FaceAttractiveness,2022.2.2,Win32,60.33546519,,,,,,,,
,,,,,273.4356,Extremely  Attractive,Extremely Unattractive,normal,006_M_F_N_A.png,LCHEEK,3,30.46875,1.4709,-0.04296875,-0.390625,1,0,0,NextBu,0.965686684,75,0,75,0,1,a,f,41,indian,2022-07-29_14h02.07.534,FaceAttractiveness,2022.2.2,Win32,60.33546519,,,,,,,,
,,,,,276.3179,Extremely  Attractive,Extremely Unattractive,normal,CFD_WM_212_097_N.png,LIP,4,14.84375,1.3292,0.0234375,-0.364583333,1,0,0,NextBu,0.625118771,76,0,76,0,1,a,f,41,indian,2022-07-29_14h02.07.534,FaceAttractiveness,2022.2.2,Win32,60.33546519,,,,,,,,
,,,,,278.7694,Extremely  Attractive,Extremely Unattractive,normal,CFD_WF_250_167_N.png,LCHEEK,4,32.55208333,1.0333,-0.00390625,-0.395833333,1,0,0,NextBu,0.673388658,77,0,77,0,1,a,f,41,indian,2022-07-29_14h02.07.534,FaceAttractiveness,2022.2.2,Win32,60.33546519,,,,,,,,
,,,,,281.1052,Extremely  Attractive,Extremely Unattractive,normal,CFD_WF_200_099_N.png,LIP,4,24.609375,2.0174,-0.036458333,-0.385416667,1,0,0,NextBu,0.546118442,78,0,78,0,1,a,f,41,indian,2022-07-29_14h02.07.534,FaceAttractiveness,2022.2.2,Win32,60.33546519,,,,,,,,
,,,,,284.1864,Extremely  Attractive,Extremely Unattractive,normal,CFD_WF_002_004_N.png,RCHEEK,4,90.88541667,1.6165,0.01171875,-0.408854167,1,0,0,NextBu,0.925717627,79,0,79,0,1,a,f,41,indian,2022-07-29_14h02.07.534,FaceAttractiveness,2022.2.2,Win32,60.33546519,,,,,,,,
,,,,,287.4003,Extremely  Attractive,Extremely Unattractive,normal,CFD_LM_203_026_N.png,LCHEEK,4,65.234375,2.6889,0.061197917,-0.397135417,1,0,0,NextBu,0.80542906,80,0,80,0,1,a,f,41,indian,2022-07-29_14h02.07.534,FaceAttractiveness,2022.2.2,Win32,60.33546519,,,,,,,,
,,,,,291.3257,Extremely  Attractive,Extremely Unattractive,normal,CFD_LM_201_057_N.png,NASALTIP,4,28.77604167,1.5168,0.015625,-0.403645833,1,0,0,NextBu,0.775475072,81,0,81,0,1,a,f,41,indian,2022-07-29_14h02.07.534,FaceAttractiveness,2022.2.2,Win32,60.33546519,,,,,,,,
,,,,,294.2085,Extremely  Attractive,Extremely Unattractive,normal,CFD_LF_224_176_N.png,NASALTIP,4,34.765625,1.3974,0.053385417,-0.43359375,1,0,0,NextBu,0.763348674,82,0,82,0,1,a,f,41,indian,2022-07-29_14h02.07.534,FaceAttractiveness,2022.2.2,Win32,60.33546519,,,,,,,,
,,,,,296.9584,Extremely  Attractive,Extremely Unattractive,normal,CFD_BM_234_172_N.png,RCHEEK,4,50.13020833,1.9442,-0.002604167,-0.411458333,1,0,0,NextBu,0.828533151,83,0,83,0,1,a,f,41,indian,2022-07-29_14h02.07.534,FaceAttractiveness,2022.2.2,Win32,60.33546519,,,,,,,,
,,,,,300.2051,Extremely  Attractive,Extremely Unattractive,normal,CFD_BM_213_134_N.png,LIP,4,35.15625,1.4216,-0.009114583,-0.407552083,1,0,0,NextBu,0.63727119,84,0,84,0,1,a,f,41,indian,2022-07-29_14h02.07.534,FaceAttractiveness,2022.2.2,Win32,60.33546519,,,,,,,,
,,,,,302.7235,Extremely  Attractive,Extremely Unattractive,normal,CFD_BF_224_002_N.png,NASALTIP,4,33.85416667,1.4803,-0.013020833,-0.389322917,1,0,0,NextBu,0.940171484,85,0,85,0,1,a,f,41,indian,2022-07-29_14h02.07.534,FaceAttractiveness,2022.2.2,Win32,60.33546519,,,,,,,,
,,,,,305.6387,Extremely  Attractive,Extremely Unattractive,normal,CFD_BF_214_308_N.png,LCHEEK,4,19.66145833,1.3483,-0.005208333,-0.4140625,1,0,0,NextBu,0.851222103,86,0,86,0,1,a,f,41,indian,2022-07-29_14h02.07.534,FaceAttractiveness,2022.2.2,Win32,60.33546519,,,,,,,,
,,,,,308.3223,Extremely  Attractive,Extremely Unattractive,normal,CFD_AM_233_236_N.png,FOREHEAD,4,45.703125,1.4627,-0.006510417,-0.403645833,1,0,0,NextBu,0.794688271,87,0,87,0,1,a,f,41,indian,2022-07-29_14h02.07.534,FaceAttractiveness,2022.2.2,Win32,60.33546519,,,,,,,,
,,,,,311.1219,Extremely  Attractive,Extremely Unattractive,normal,CFD_AF_245_143_N.png,RCHEEK,4,22.00520833,1.3133,-0.033854167,-0.404947917,1,0,0,NextBu,0.904796893,88,0,88,0,1,a,f,41,indian,2022-07-29_14h02.07.534,FaceAttractiveness,2022.2.2,Win32,60.33546519,,,,,,,,
,,,,,313.7889,Extremely  Attractive,Extremely Unattractive,normal,CFD_AF_237_223_N.png,NASALTIP,4,33.33333333,1.0806,-0.067708333,-0.408854167,1,0,0,NextBu,0.696556106,89,0,89,0,1,a,f,41,indian,2022-07-29_14h02.07.534,FaceAttractiveness,2022.2.2,Win32,60.33546519,,,,,,,,
,,,,,316.0254,Extremely  Attractive,Extremely Unattractive,normal,CFD_AF_231_357_N.png,FOREHEAD,4,40.75520833,1.5467,-0.01171875,-0.423177083,1,0,0,NextBu,0.682839928,90,0,90,0,1,a,f,41,indian,2022-07-29_14h02.07.534,FaceAttractiveness,2022.2.2,Win32,60.33546519,,,,,,,,
,,,,,318.6083,Extremely  Attractive,Extremely Unattractive,normal,136_M_M_N_A.png,LCHEEK,4,50.52083333,1.5468,0.002604167,-0.377604167,1,0,0,NextBu,0.903187929,91,0,91,0,1,a,f,41,indian,2022-07-29_14h02.07.534,FaceAttractiveness,2022.2.2,Win32,60.33546519,,,,,,,,
,,,,,321.4422,Extremely  Attractive,Extremely Unattractive,normal,087_M_M_N_A.png,LCHEEK,4,16.015625,1.9273,0.013020833,-0.373697917,1,0,0,NextBu,0.75247473,92,0,92,0,1,a,f,41,indian,2022-07-29_14h02.07.534,FaceAttractiveness,2022.2.2,Win32,60.33546519,,,,,,,,
,,,,,324.6061,Extremely  Attractive,Extremely Unattractive,normal,035_M_F_N_A.png,LCHEEK,4,39.58333333,1.6682,0.045572917,-0.372395833,1,0,0,NextBu,0.88004503,93,0,93,0,1,a,f,41,indian,2022-07-29_14h02.07.534,FaceAttractiveness,2022.2.2,Win32,60.33546519,,,,,,,,
,,,,,327.7041,Extremely  Attractive,Extremely Unattractive,normal,006_M_F_N_A.png,LIP,4,25,1.4823,0.01953125,-0.37890625,1,0,0,NextBu,0.750896023,94,0,94,0,1,a,f,41,indian,2022-07-29_14h02.07.534,FaceAttractiveness,2022.2.2,Win32,60.33546519,,,,,,,,
,,,,,,,,,,,,,,,,,,,,,,,,,,a,f,41,indian,2022-07-29_14h02.07.534,FaceAttractiveness,2022.2.2,Win32,60.33546519,0,0,0,0,1,Attractiveness,Extremely  Attractive,Extremely Unattractive
,,,,,,,,,,,,,,,,,,,,,,,,,,a,f,41,indian,2022-07-29_14h02.07.534,FaceAttractiveness,2022.2.2,Win32,60.33546519,,,,,,,,
