mouse.x,mouse.y,mouse.leftButton,mouse.midButton,mouse.rightButton,onsetTime,leftText,rightText,sliderDirection,face,lesion,block,slider.response,slider.rt,mouse_5.x,mouse_5.y,mouse_5.leftButton,mouse_5.midButton,mouse_5.rightButton,mouse_5.clicked_name,ITI,originalFaceTrials.thisRepN,originalFaceTrials.thisTrialN,originalFaceTrials.thisN,originalFaceTrials.thisIndex,originalFaceTrials.ran,Name,Gender,Age,Ethnicity,date,expName,psychopyVersion,OS,frameRate,RatingBlockOrder.thisRepN,RatingBlockOrder.thisTrialN,RatingBlockOrder.thisN,RatingBlockOrder.thisIndex,RatingBlockOrder.ran,Task,LeftLabel,RightLabel
0.008680556,-0.265241609,1,0,0,3.0223,Extremely  Attractive,Extremely Unattractive,normal,CFD_WM_212_097_N.png,LIP,0,45.27271412,4.6885,-0.003313079,-0.381568287,1,0,0,NextBu,0.874143595,0,0,0,0,1,ah,Female,31,Asian,2022-08-09_10h50.12.534,FaceAttractiveness,2022.2.2,MacIntel,60.0024001,,,,,,,,
,,,,,9.1862,Extremely  Attractive,Extremely Unattractive,normal,CFD_WF_250_167_N.png,NASALTIP,0,74.7620081,6.7469,0.008915654,-0.395619936,1,0,0,NextBu,0.851924906,1,0,1,0,1,ah,Female,31,Asian,2022-08-09_10h50.12.534,FaceAttractiveness,2022.2.2,MacIntel,60.0024001,,,,,,,,
,,,,,17.2036,Extremely  Attractive,Extremely Unattractive,normal,CFD_WF_200_099_N.png,NASALTIP,0,51.80555556,6.8395,0.001132089,-0.373292824,1,0,0,NextBu,0.628591018,2,0,2,0,1,ah,Female,31,Asian,2022-08-09_10h50.12.534,FaceAttractiveness,2022.2.2,MacIntel,60.0024001,,,,,,,,
,,,,,24.9701,Extremely  Attractive,Extremely Unattractive,normal,CFD_WF_002_004_N.png,LCHEEK,0,63.43496817,1.8114,0.044686777,-0.381123409,1,0,0,NextBu,0.875222278,3,0,3,0,1,ah,Female,31,Asian,2022-08-09_10h50.12.534,FaceAttractiveness,2022.2.2,MacIntel,60.0024001,,,,,,,,
,,,,,27.9866,Extremely  Attractive,Extremely Unattractive,normal,CFD_LM_203_026_N.png,LCHEEK,0,67.54846644,1.6897,0.03765191,-0.381799769,1,0,0,NextBu,0.871244445,4,0,4,0,1,ah,Female,31,Asian,2022-08-09_10h50.12.534,FaceAttractiveness,2022.2.2,MacIntel,60.0024001,,,,,,,,
,,,,,30.938,Extremely  Attractive,Extremely Unattractive,normal,CFD_LM_201_057_N.png,NASALTIP,0,48.9203559,2.9448,0.051298466,-0.373441117,1,0,0,NextBu,0.746565342,5,0,5,0,1,ah,Female,31,Asian,2022-08-09_10h50.12.534,FaceAttractiveness,2022.2.2,MacIntel,60.0024001,,,,,,,,
,,,,,34.97,Extremely  Attractive,Extremely Unattractive,normal,CFD_LF_224_176_N.png,LIP,0,51.46375868,1.3423,0.00885055,-0.363169126,1,0,0,NextBu,0.819222175,6,0,6,0,1,ah,Female,31,Asian,2022-08-09_10h50.12.534,FaceAttractiveness,2022.2.2,MacIntel,60.0024001,,,,,,,,
,,,,,37.404,Extremely  Attractive,Extremely Unattractive,normal,CFD_BM_234_172_N.png,LIP,0,66.59215856,1.3112,0.09208261,-0.372265625,1,0,0,NextBu,0.674899669,7,0,7,0,1,ah,Female,31,Asian,2022-08-09_10h50.12.534,FaceAttractiveness,2022.2.2,MacIntel,60.0024001,,,,,,,,
,,,,,39.637,Extremely  Attractive,Extremely Unattractive,normal,CFD_BM_213_134_N.png,FOREHEAD,0,77.95572917,2.1418,0.040668403,-0.388979311,1,0,0,NextBu,0.803808295,8,0,8,0,1,ah,Female,31,Asian,2022-08-09_10h50.12.534,FaceAttractiveness,2022.2.2,MacIntel,60.0024001,,,,,,,,
,,,,,42.8708,Extremely  Attractive,Extremely Unattractive,normal,CFD_BF_224_002_N.png,LCHEEK,0,74.72728588,2.9258,0.039970341,-0.392925347,1,0,0,NextBu,0.858426658,9,0,9,0,1,ah,Female,31,Asian,2022-08-09_10h50.12.534,FaceAttractiveness,2022.2.2,MacIntel,60.0024001,,,,,,,,
,,,,,47.0042,Extremely  Attractive,Extremely Unattractive,normal,CFD_BF_214_308_N.png,LCHEEK,0,69.39778646,4.2388,0.054282407,-0.436957465,1,0,0,NextBu,0.633498455,10,0,10,0,1,ah,Female,31,Asian,2022-08-09_10h50.12.534,FaceAttractiveness,2022.2.2,MacIntel,60.0024001,,,,,,,,
,,,,,52.1713,Extremely  Attractive,Extremely Unattractive,normal,CFD_AM_233_236_N.png,RCHEEK,0,68.53587963,1.546,-0.003569878,-0.386693432,1,0,0,NextBu,0.504797098,11,0,11,0,1,ah,Female,31,Asian,2022-08-09_10h50.12.534,FaceAttractiveness,2022.2.2,MacIntel,60.0024001,,,,,,,,
,,,,,54.5204,Extremely  Attractive,Extremely Unattractive,normal,CFD_AF_245_143_N.png,LIP,0,50.38773148,2.3078,-0.019744647,-0.366818576,1,0,0,NextBu,0.836234803,12,0,12,0,1,ah,Female,31,Asian,2022-08-09_10h50.12.534,FaceAttractiveness,2022.2.2,MacIntel,60.0024001,,,,,,,,
,,,,,57.9215,Extremely  Attractive,Extremely Unattractive,normal,CFD_AF_237_223_N.png,RCHEEK,0,47.24898727,1.5277,-0.017744502,-0.381000434,1,0,0,NextBu,0.526236989,13,0,13,0,1,ah,Female,31,Asian,2022-08-09_10h50.12.534,FaceAttractiveness,2022.2.2,MacIntel,60.0024001,,,,,,,,
,,,,,60.2379,Extremely  Attractive,Extremely Unattractive,normal,CFD_AF_231_357_N.png,NASALTIP,0,61.08181424,1.4472,0.044133391,-0.359277344,1,0,0,NextBu,0.587807986,14,0,14,0,1,ah,Female,31,Asian,2022-08-09_10h50.12.534,FaceAttractiveness,2022.2.2,MacIntel,60.0024001,,,,,,,,
,,,,,62.5204,Extremely  Attractive,Extremely Unattractive,normal,136_M_M_N_A.png,RCHEEK,0,48.24978299,2.7753,0.013476563,-0.365386285,1,0,0,NextBu,0.519389877,15,0,15,0,1,ah,Female,31,Asian,2022-08-09_10h50.12.534,FaceAttractiveness,2022.2.2,MacIntel,60.0024001,,,,,,,,
,,,,,66.0537,Extremely  Attractive,Extremely Unattractive,normal,087_M_M_N_A.png,FOREHEAD,0,46.29340278,1.6755,-0.021853299,-0.376479311,1,0,0,NextBu,0.51927043,16,0,16,0,1,ah,Female,31,Asian,2022-08-09_10h50.12.534,FaceAttractiveness,2022.2.2,MacIntel,60.0024001,,,,,,,,
,,,,,68.5703,Extremely  Attractive,Extremely Unattractive,normal,035_M_F_N_A.png,LIP,0,55.16131366,1.677,0.022135417,-0.377173756,1,0,0,NextBu,0.904458392,17,0,17,0,1,ah,Female,31,Asian,2022-08-09_10h50.12.534,FaceAttractiveness,2022.2.2,MacIntel,60.0024001,,,,,,,,
,,,,,71.388,Extremely  Attractive,Extremely Unattractive,normal,006_M_F_N_A.png,LIP,0,46.46846065,1.4746,-0.00171441,-0.376732494,1,0,0,NextBu,0.606512424,18,0,18,0,1,ah,Female,31,Asian,2022-08-09_10h50.12.534,FaceAttractiveness,2022.2.2,MacIntel,60.0024001,,,,,,,,
,,,,,73.7382,Extremely  Attractive,Extremely Unattractive,normal,CFD_WM_212_097_N.png,LCHEEK,1,47.87073206,2.7551,-0.003139468,-0.397573061,1,0,0,NextBu,0.912813018,19,0,19,0,1,ah,Female,31,Asian,2022-08-09_10h50.12.534,FaceAttractiveness,2022.2.2,MacIntel,60.0024001,,,,,,,,
,,,,,77.6711,Extremely  Attractive,Extremely Unattractive,normal,CFD_WF_250_167_N.png,FOREHEAD,1,65.68865741,2.2268,-0.005193866,-0.390089699,1,0,0,NextBu,0.647664409,20,0,20,0,1,ah,Female,31,Asian,2022-08-09_10h50.12.534,FaceAttractiveness,2022.2.2,MacIntel,60.0024001,,,,,,,,
,,,,,80.8538,Extremely  Attractive,Extremely Unattractive,normal,CFD_WF_200_099_N.png,FOREHEAD,1,46.96542245,1.3958,-0.027311198,-0.368019387,1,0,0,NextBu,0.961327342,21,0,21,0,1,ah,Female,31,Asian,2022-08-09_10h50.12.534,FaceAttractiveness,2022.2.2,MacIntel,60.0024001,,,,,,,,
,,,,,83.4546,Extremely  Attractive,Extremely Unattractive,normal,CFD_WF_002_004_N.png,RCHEEK,1,69.12000868,1.412,0.060460069,-0.386668113,1,0,0,NextBu,0.762071379,22,0,22,0,1,ah,Female,31,Asian,2022-08-09_10h50.12.534,FaceAttractiveness,2022.2.2,MacIntel,60.0024001,,,,,,,,
,,,,,85.8711,Extremely  Attractive,Extremely Unattractive,normal,CFD_LM_203_026_N.png,RCHEEK,1,65.63476563,1.3723,0.000137442,-0.406224682,1,0,0,NextBu,0.664166882,23,0,23,0,1,ah,Female,31,Asian,2022-08-09_10h50.12.534,FaceAttractiveness,2022.2.2,MacIntel,60.0024001,,,,,,,,
,,,,,88.1705,Extremely  Attractive,Extremely Unattractive,normal,CFD_LM_201_057_N.png,FOREHEAD,1,47.51374421,1.4232,-0.012800203,-0.384534144,1,0,0,NextBu,0.567250487,24,0,24,0,1,ah,Female,31,Asian,2022-08-09_10h50.12.534,FaceAttractiveness,2022.2.2,MacIntel,60.0024001,,,,,,,,
,,,,,90.4048,Extremely  Attractive,Extremely Unattractive,normal,CFD_LF_224_176_N.png,LCHEEK,1,50.61993634,1.7248,-0.024768519,-0.374298322,1,0,0,NextBu,0.743834856,25,0,25,0,1,ah,Female,31,Asian,2022-08-09_10h50.12.534,FaceAttractiveness,2022.2.2,MacIntel,60.0024001,,,,,,,,
,,,,,93.0882,Extremely  Attractive,Extremely Unattractive,normal,CFD_BM_234_172_N.png,RCHEEK,1,65.63621238,1.807,0.008467159,-0.384042245,1,0,0,NextBu,0.624116503,26,0,26,0,1,ah,Female,31,Asian,2022-08-09_10h50.12.534,FaceAttractiveness,2022.2.2,MacIntel,60.0024001,,,,,,,,
,,,,,95.8209,Extremely  Attractive,Extremely Unattractive,normal,CFD_BM_213_134_N.png,LCHEEK,1,77.34338831,1.3411,0.060955584,-0.368500434,1,0,0,NextBu,0.539803883,27,0,27,0,1,ah,Female,31,Asian,2022-08-09_10h50.12.534,FaceAttractiveness,2022.2.2,MacIntel,60.0024001,,,,,,,,
,,,,,97.9708,Extremely  Attractive,Extremely Unattractive,normal,CFD_BF_224_002_N.png,NASALTIP,1,72.04969618,1.2657,0.055761719,-0.394534867,1,0,0,NextBu,0.517828353,28,0,28,0,1,ah,Female,31,Asian,2022-08-09_10h50.12.534,FaceAttractiveness,2022.2.2,MacIntel,60.0024001,,,,,,,,
,,,,,100.0049,Extremely  Attractive,Extremely Unattractive,normal,CFD_BF_214_308_N.png,FOREHEAD,1,64.9254919,1.2066,0.058514178,-0.408987992,1,0,0,NextBu,0.920278119,29,0,29,0,1,ah,Female,31,Asian,2022-08-09_10h50.12.534,FaceAttractiveness,2022.2.2,MacIntel,60.0024001,,,,,,,,
,,,,,102.4037,Extremely  Attractive,Extremely Unattractive,normal,CFD_AM_233_236_N.png,LCHEEK,1,63.53370949,1.5586,0.050079572,-0.397500723,1,0,0,NextBu,0.886160976,30,0,30,0,1,ah,Female,31,Asian,2022-08-09_10h50.12.534,FaceAttractiveness,2022.2.2,MacIntel,60.0024001,,,,,,,,
,,,,,105.1041,Extremely  Attractive,Extremely Unattractive,normal,CFD_AF_245_143_N.png,NASALTIP,1,51.28074363,1.3284,-0.037163628,-0.360536024,1,0,0,NextBu,0.702555624,31,0,31,0,1,ah,Female,31,Asian,2022-08-09_10h50.12.534,FaceAttractiveness,2022.2.2,MacIntel,60.0024001,,,,,,,,
,,,,,107.4042,Extremely  Attractive,Extremely Unattractive,normal,CFD_AF_237_223_N.png,NASALTIP,1,48.73734086,1.1383,-0.040075231,-0.384356916,1,0,0,NextBu,0.73526018,32,0,32,0,1,ah,Female,31,Asian,2022-08-09_10h50.12.534,FaceAttractiveness,2022.2.2,MacIntel,60.0024001,,,,,,,,
,,,,,109.4876,Extremely  Attractive,Extremely Unattractive,normal,CFD_AF_231_357_N.png,LCHEEK,1,56.09700521,1.1921,-0.003913484,-0.370804398,1,0,0,NextBu,0.606283674,33,0,33,0,1,ah,Female,31,Asian,2022-08-09_10h50.12.534,FaceAttractiveness,2022.2.2,MacIntel,60.0024001,,,,,,,,
,,,,,111.6387,Extremely  Attractive,Extremely Unattractive,normal,136_M_M_N_A.png,FOREHEAD,1,49.20500579,1.5412,0.0057364,-0.419498698,1,0,0,NextBu,0.913337565,34,0,34,0,1,ah,Female,31,Asian,2022-08-09_10h50.12.534,FaceAttractiveness,2022.2.2,MacIntel,60.0024001,,,,,,,,
,,,,,114.3383,Extremely  Attractive,Extremely Unattractive,normal,087_M_M_N_A.png,RCHEEK,1,49.85749421,1.36,-0.005989583,-0.399518953,1,0,0,NextBu,0.56601064,35,0,35,0,1,ah,Female,31,Asian,2022-08-09_10h50.12.534,FaceAttractiveness,2022.2.2,MacIntel,60.0024001,,,,,,,,
,,,,,116.5052,Extremely  Attractive,Extremely Unattractive,normal,035_M_F_N_A.png,NASALTIP,1,52.13650174,1.2911,-0.022363281,-0.373097512,1,0,0,NextBu,0.596946404,36,0,36,0,1,ah,Female,31,Asian,2022-08-09_10h50.12.534,FaceAttractiveness,2022.2.2,MacIntel,60.0024001,,,,,,,,
,,,,,118.605,Extremely  Attractive,Extremely Unattractive,normal,006_M_F_N_A.png,NASALTIP,1,52.3828125,0.9413,-0.0091182,-0.382877604,1,0,0,NextBu,0.932295966,37,0,37,0,1,ah,Female,31,Asian,2022-08-09_10h50.12.534,FaceAttractiveness,2022.2.2,MacIntel,60.0024001,,,,,,,,
,,,,,120.7219,Extremely  Attractive,Extremely Unattractive,normal,CFD_WM_212_097_N.png,FOREHEAD,2,47.17484086,1.1309,-0.041905382,-0.403609664,1,0,0,NextBu,0.7154589,38,0,38,0,1,ah,Female,31,Asian,2022-08-09_10h50.12.534,FaceAttractiveness,2022.2.2,MacIntel,60.0024001,,,,,,,,
,,,,,122.7879,Extremely  Attractive,Extremely Unattractive,normal,CFD_WF_250_167_N.png,LCHEEK,2,54.13411458,1.2425,0.02541956,-0.377593316,1,0,0,NextBu,0.799769948,39,0,39,0,1,ah,Female,31,Asian,2022-08-09_10h50.12.534,FaceAttractiveness,2022.2.2,MacIntel,60.0024001,,,,,,,,
,,,,,125.0545,Extremely  Attractive,Extremely Unattractive,normal,CFD_WF_200_099_N.png,RCHEEK,2,43.05338542,1.107,-0.063458478,-0.427618634,1,0,0,NextBu,0.951243106,40,0,40,0,1,ah,Female,31,Asian,2022-08-09_10h50.12.534,FaceAttractiveness,2022.2.2,MacIntel,60.0024001,,,,,,,,
,,,,,127.4045,Extremely  Attractive,Extremely Unattractive,normal,CFD_WF_002_004_N.png,LIP,2,60.82935475,1.238,0.024949363,-0.415107784,1,0,0,NextBu,0.939006723,41,0,41,0,1,ah,Female,31,Asian,2022-08-09_10h50.12.534,FaceAttractiveness,2022.2.2,MacIntel,60.0024001,,,,,,,,
,,,,,129.7875,Extremely  Attractive,Extremely Unattractive,normal,CFD_LM_203_026_N.png,LIP,2,63.81474248,1.0911,0.034490741,-0.415650318,1,0,0,NextBu,0.785020327,42,0,42,0,1,ah,Female,31,Asian,2022-08-09_10h50.12.534,FaceAttractiveness,2022.2.2,MacIntel,60.0024001,,,,,,,,
,,,,,131.8724,Extremely  Attractive,Extremely Unattractive,normal,CFD_LM_201_057_N.png,RCHEEK,2,42.03305845,1.3719,0.02390408,-0.381445313,1,0,0,NextBu,0.555108275,43,0,43,0,1,ah,Female,31,Asian,2022-08-09_10h50.12.534,FaceAttractiveness,2022.2.2,MacIntel,60.0024001,,,,,,,,
,,,,,134.0379,Extremely  Attractive,Extremely Unattractive,normal,CFD_LF_224_176_N.png,RCHEEK,2,51.50499132,1.258,-0.001942274,-0.371267361,1,0,0,NextBu,0.559577201,44,0,44,0,1,ah,Female,31,Asian,2022-08-09_10h50.12.534,FaceAttractiveness,2022.2.2,MacIntel,60.0024001,,,,,,,,
,,,,,136.0386,Extremely  Attractive,Extremely Unattractive,normal,CFD_BM_234_172_N.png,FOREHEAD,2,69.28059896,1.0738,0.098795573,-0.395214844,1,0,0,NextBu,0.548962123,45,0,45,0,1,ah,Female,31,Asian,2022-08-09_10h50.12.534,FaceAttractiveness,2022.2.2,MacIntel,60.0024001,,,,,,,,
,,,,,137.8553,Extremely  Attractive,Extremely Unattractive,normal,CFD_BM_213_134_N.png,NASALTIP,2,81.93359375,1.1316,0.081778067,-0.378895399,1,0,0,NextBu,0.931970886,46,0,46,0,1,ah,Female,31,Asian,2022-08-09_10h50.12.534,FaceAttractiveness,2022.2.2,MacIntel,60.0024001,,,,,,,,
,,,,,140.1719,Extremely  Attractive,Extremely Unattractive,normal,CFD_BF_224_002_N.png,LIP,2,78.37275752,1.5293,0.067809606,-0.386237703,1,0,0,NextBu,0.719671887,47,0,47,0,1,ah,Female,31,Asian,2022-08-09_10h50.12.534,FaceAttractiveness,2022.2.2,MacIntel,60.0024001,,,,,,,,
,,,,,142.7046,Extremely  Attractive,Extremely Unattractive,normal,CFD_BF_214_308_N.png,RCHEEK,2,73.10908565,1.008,0.072157118,-0.379134115,1,0,0,NextBu,0.554243846,48,0,48,0,1,ah,Female,31,Asian,2022-08-09_10h50.12.534,FaceAttractiveness,2022.2.2,MacIntel,60.0024001,,,,,,,,
,,,,,144.4546,Extremely  Attractive,Extremely Unattractive,normal,CFD_AM_233_236_N.png,FOREHEAD,2,70.29550058,1.0558,-0.016127749,-0.43541305,1,0,0,NextBu,0.644342669,49,0,49,0,1,ah,Female,31,Asian,2022-08-09_10h50.12.534,FaceAttractiveness,2022.2.2,MacIntel,60.0024001,,,,,,,,
,,,,,146.3381,Extremely  Attractive,Extremely Unattractive,normal,CFD_AF_245_143_N.png,RCHEEK,2,49.10807292,1.5387,-0.025752315,-0.392104311,1,0,0,NextBu,0.927217277,50,0,50,0,1,ah,Female,31,Asian,2022-08-09_10h50.12.534,FaceAttractiveness,2022.2.2,MacIntel,60.0024001,,,,,,,,
,,,,,148.9877,Extremely  Attractive,Extremely Unattractive,normal,CFD_AF_237_223_N.png,LCHEEK,2,42.54774306,1.2472,-0.0197989,-0.391608796,1,0,0,NextBu,0.94382086,51,0,51,0,1,ah,Female,31,Asian,2022-08-09_10h50.12.534,FaceAttractiveness,2022.2.2,MacIntel,60.0024001,,,,,,,,
,,,,,151.4392,Extremely  Attractive,Extremely Unattractive,normal,CFD_AF_231_357_N.png,LIP,2,52.73473669,2.2429,0.018196615,-0.379000289,1,0,0,NextBu,0.929661327,52,0,52,0,1,ah,Female,31,Asian,2022-08-09_10h50.12.534,FaceAttractiveness,2022.2.2,MacIntel,60.0024001,,,,,,,,
,,,,,155.0392,Extremely  Attractive,Extremely Unattractive,normal,136_M_M_N_A.png,LIP,2,60.02314815,1.1413,0.033966291,-0.379495804,1,0,0,NextBu,0.863353342,53,0,53,0,1,ah,Female,31,Asian,2022-08-09_10h50.12.534,FaceAttractiveness,2022.2.2,MacIntel,60.0024001,,,,,,,,
,,,,,157.3048,Extremely  Attractive,Extremely Unattractive,normal,087_M_M_N_A.png,LCHEEK,2,45.23835359,1.1716,-0.032436343,-0.408564815,1,0,0,NextBu,0.825084316,54,0,54,0,1,ah,Female,31,Asian,2022-08-09_10h50.12.534,FaceAttractiveness,2022.2.2,MacIntel,60.0024001,,,,,,,,
,,,,,159.5548,Extremely  Attractive,Extremely Unattractive,normal,035_M_F_N_A.png,RCHEEK,2,52.3755787,1.2068,0.009639034,-0.394571036,1,0,0,NextBu,0.7455379,55,0,55,0,1,ah,Female,31,Asian,2022-08-09_10h50.12.534,FaceAttractiveness,2022.2.2,MacIntel,60.0024001,,,,,,,,
,,,,,161.7049,Extremely  Attractive,Extremely Unattractive,normal,006_M_F_N_A.png,RCHEEK,2,52.07067419,1.1914,0.000470197,-0.383930122,1,0,0,NextBu,0.594171341,56,0,56,0,1,ah,Female,31,Asian,2022-08-09_10h50.12.534,FaceAttractiveness,2022.2.2,MacIntel,60.0024001,,,,,,,,
,,,,,163.6718,Extremely  Attractive,Extremely Unattractive,normal,CFD_WM_212_097_N.png,NASALTIP,3,36.44205729,1.1721,-0.05061849,-0.386324508,1,0,0,NextBu,0.837000005,57,0,57,0,1,ah,Female,31,Asian,2022-08-09_10h50.12.534,FaceAttractiveness,2022.2.2,MacIntel,60.0024001,,,,,,,,
,,,,,165.9383,Extremely  Attractive,Extremely Unattractive,normal,CFD_WF_250_167_N.png,LIP,3,65.05606192,1.0763,0.082042101,-0.378663918,1,0,0,NextBu,0.608934383,58,0,58,0,1,ah,Female,31,Asian,2022-08-09_10h50.12.534,FaceAttractiveness,2022.2.2,MacIntel,60.0024001,,,,,,,,
,,,,,168.1052,Extremely  Attractive,Extremely Unattractive,normal,CFD_WF_200_099_N.png,LIP,3,43.89467593,1.2251,-0.021270978,-0.361378762,1,0,0,NextBu,0.79437286,59,0,59,0,1,ah,Female,31,Asian,2022-08-09_10h50.12.534,FaceAttractiveness,2022.2.2,MacIntel,60.0024001,,,,,,,,
,,,,,170.4714,Extremely  Attractive,Extremely Unattractive,normal,CFD_WF_002_004_N.png,NASALTIP,3,56.94733796,0.9957,-3.97859E-05,-0.380320457,1,0,0,NextBu,0.825881713,60,0,60,0,1,ah,Female,31,Asian,2022-08-09_10h50.12.534,FaceAttractiveness,2022.2.2,MacIntel,60.0024001,,,,,,,,
,,,,,172.4897,Extremely  Attractive,Extremely Unattractive,normal,CFD_LM_203_026_N.png,FOREHEAD,3,66.90972222,2.2563,0.014304832,-0.400712529,1,0,0,NextBu,0.55120406,61,0,61,0,1,ah,Female,31,Asian,2022-08-09_10h50.12.534,FaceAttractiveness,2022.2.2,MacIntel,60.0024001,,,,,,,,
,,,,,175.5221,Extremely  Attractive,Extremely Unattractive,normal,CFD_LM_201_057_N.png,LCHEEK,3,39.06756366,1.6075,-0.013270399,-0.391427951,1,0,0,NextBu,0.772703303,62,0,62,0,1,ah,Female,31,Asian,2022-08-09_10h50.12.534,FaceAttractiveness,2022.2.2,MacIntel,60.0024001,,,,,,,,
,,,,,178.1393,Extremely  Attractive,Extremely Unattractive,normal,CFD_LF_224_176_N.png,FOREHEAD,3,44.84121817,1.2896,-0.043019387,-0.383000579,1,0,0,NextBu,0.828499331,63,0,63,0,1,ah,Female,31,Asian,2022-08-09_10h50.12.534,FaceAttractiveness,2022.2.2,MacIntel,60.0024001,,,,,,,,
,,,,,180.4388,Extremely  Attractive,Extremely Unattractive,normal,CFD_BM_234_172_N.png,LCHEEK,3,62.91341146,1.2574,0.057725694,-0.374992766,1,0,0,NextBu,0.676068752,64,0,64,0,1,ah,Female,31,Asian,2022-08-09_10h50.12.534,FaceAttractiveness,2022.2.2,MacIntel,60.0024001,,,,,,,,
,,,,,182.5716,Extremely  Attractive,Extremely Unattractive,normal,CFD_BM_213_134_N.png,RCHEEK,3,82.41572627,1.15,0.091760706,-0.386277488,1,0,0,NextBu,0.571600249,65,0,65,0,1,ah,Female,31,Asian,2022-08-09_10h50.12.534,FaceAttractiveness,2022.2.2,MacIntel,60.0024001,,,,,,,,
,,,,,184.6213,Extremely  Attractive,Extremely Unattractive,normal,CFD_BF_224_002_N.png,FOREHEAD,3,76.30714699,1.1967,0.057295284,-0.369607205,1,0,0,NextBu,0.626461997,66,0,66,0,1,ah,Female,31,Asian,2022-08-09_10h50.12.534,FaceAttractiveness,2022.2.2,MacIntel,60.0024001,,,,,,,,
,,,,,186.8387,Extremely  Attractive,Extremely Unattractive,normal,CFD_BF_214_308_N.png,NASALTIP,3,71.11364294,1.0572,0.089977575,-0.372450087,1,0,0,NextBu,0.991208412,67,0,67,0,1,ah,Female,31,Asian,2022-08-09_10h50.12.534,FaceAttractiveness,2022.2.2,MacIntel,60.0024001,,,,,,,,
,,,,,189.0885,Extremely  Attractive,Extremely Unattractive,normal,CFD_AM_233_236_N.png,NASALTIP,3,64.41948785,1.0246,0.019690394,-0.385988137,1,0,0,NextBu,0.75581397,68,0,68,0,1,ah,Female,31,Asian,2022-08-09_10h50.12.534,FaceAttractiveness,2022.2.2,MacIntel,60.0024001,,,,,,,,
,,,,,191.106,Extremely  Attractive,Extremely Unattractive,normal,CFD_AF_245_143_N.png,LCHEEK,3,32.87037037,1.343,-0.03577474,-0.385188802,1,0,0,NextBu,0.871497022,69,0,69,0,1,ah,Female,31,Asian,2022-08-09_10h50.12.534,FaceAttractiveness,2022.2.2,MacIntel,60.0024001,,,,,,,,
,,,,,193.7728,Extremely  Attractive,Extremely Unattractive,normal,CFD_AF_237_223_N.png,LIP,3,34.23828125,3.5068,0.018359375,-0.370999711,1,0,0,NextBu,0.763644381,70,0,70,0,1,ah,Female,31,Asian,2022-08-09_10h50.12.534,FaceAttractiveness,2022.2.2,MacIntel,60.0024001,,,,,,,,
,,,,,198.389,Extremely  Attractive,Extremely Unattractive,normal,CFD_AF_231_357_N.png,FOREHEAD,3,57.0808015,2.217,0.022356047,-0.376902488,1,0,0,NextBu,0.808341422,71,0,71,0,1,ah,Female,31,Asian,2022-08-09_10h50.12.534,FaceAttractiveness,2022.2.2,MacIntel,60.0024001,,,,,,,,
,,,,,201.6393,Extremely  Attractive,Extremely Unattractive,normal,136_M_M_N_A.png,LCHEEK,3,53.37565104,2.5894,-0.013187211,-0.372222222,1,0,0,NextBu,0.809622557,72,0,72,0,1,ah,Female,31,Asian,2022-08-09_10h50.12.534,FaceAttractiveness,2022.2.2,MacIntel,60.0024001,,,,,,,,
,,,,,206.0718,Extremely  Attractive,Extremely Unattractive,normal,087_M_M_N_A.png,NASALTIP,3,40.91145833,1.1646,-0.0096318,-0.40109592,1,0,0,NextBu,0.794105982,73,0,73,0,1,ah,Female,31,Asian,2022-08-09_10h50.12.534,FaceAttractiveness,2022.2.2,MacIntel,60.0024001,,,,,,,,
,,,,,208.2892,Extremely  Attractive,Extremely Unattractive,normal,035_M_F_N_A.png,FOREHEAD,3,55.98234954,0.9724,-0.012973814,-0.369628906,1,0,0,NextBu,0.683689793,74,0,74,0,1,ah,Female,31,Asian,2022-08-09_10h50.12.534,FaceAttractiveness,2022.2.2,MacIntel,60.0024001,,,,,,,,
,,,,,210.1888,Extremely  Attractive,Extremely Unattractive,normal,006_M_F_N_A.png,FOREHEAD,3,54.35402199,1.1312,0.021111834,-0.381492332,1,0,0,NextBu,0.984152987,75,0,75,0,1,ah,Female,31,Asian,2022-08-09_10h50.12.534,FaceAttractiveness,2022.2.2,MacIntel,60.0024001,,,,,,,,
,,,,,212.5235,Extremely  Attractive,Extremely Unattractive,normal,CFD_WM_212_097_N.png,RCHEEK,4,38.29824942,1.723,-0.021325231,-0.397175203,1,0,0,NextBu,0.638844546,76,0,76,0,1,ah,Female,31,Asian,2022-08-09_10h50.12.534,FaceAttractiveness,2022.2.2,MacIntel,60.0024001,,,,,,,,
,,,,,215.1222,Extremely  Attractive,Extremely Unattractive,normal,CFD_WF_250_167_N.png,RCHEEK,4,62.53363715,0.9907,0.046227575,-0.382212095,1,0,0,NextBu,0.693585624,77,0,77,0,1,ah,Female,31,Asian,2022-08-09_10h50.12.534,FaceAttractiveness,2022.2.2,MacIntel,60.0024001,,,,,,,,
,,,,,216.9898,Extremely  Attractive,Extremely Unattractive,normal,CFD_WF_200_099_N.png,LCHEEK,4,44.47048611,1.0982,-0.006199363,-0.404000289,1,0,0,NextBu,0.66652694,78,0,78,0,1,ah,Female,31,Asian,2022-08-09_10h50.12.534,FaceAttractiveness,2022.2.2,MacIntel,60.0024001,,,,,,,,
,,,,,218.9559,Extremely  Attractive,Extremely Unattractive,normal,CFD_WF_002_004_N.png,FOREHEAD,4,59.4708478,1.0462,0.030638744,-0.372413918,1,0,0,NextBu,0.9283843,79,0,79,0,1,ah,Female,31,Asian,2022-08-09_10h50.12.534,FaceAttractiveness,2022.2.2,MacIntel,60.0024001,,,,,,,,
,,,,,221.1728,Extremely  Attractive,Extremely Unattractive,normal,CFD_LM_203_026_N.png,NASALTIP,4,52.99913194,1.0573,0.006846788,-0.370771846,1,0,0,NextBu,0.652084813,80,0,80,0,1,ah,Female,31,Asian,2022-08-09_10h50.12.534,FaceAttractiveness,2022.2.2,MacIntel,60.0024001,,,,,,,,
,,,,,223.0727,Extremely  Attractive,Extremely Unattractive,normal,CFD_LM_201_057_N.png,LIP,4,41.76685475,1.043,-0.045591001,-0.403085214,1,0,0,NextBu,0.781702878,81,0,81,0,1,ah,Female,31,Asian,2022-08-09_10h50.12.534,FaceAttractiveness,2022.2.2,MacIntel,60.0024001,,,,,,,,
,,,,,225.1219,Extremely  Attractive,Extremely Unattractive,normal,CFD_LF_224_176_N.png,NASALTIP,4,46.83521412,1.4898,-0.013986545,-0.367415365,1,0,0,NextBu,0.745009102,82,0,82,0,1,ah,Female,31,Asian,2022-08-09_10h50.12.534,FaceAttractiveness,2022.2.2,MacIntel,60.0024001,,,,,,,,
,,,,,227.5397,Extremely  Attractive,Extremely Unattractive,normal,CFD_BM_234_172_N.png,NASALTIP,4,65.14973958,1.0807,0.047605613,-0.376884404,1,0,0,NextBu,0.505105253,83,0,83,0,1,ah,Female,31,Asian,2022-08-09_10h50.12.534,FaceAttractiveness,2022.2.2,MacIntel,60.0024001,,,,,,,,
,,,,,229.4559,Extremely  Attractive,Extremely Unattractive,normal,CFD_BM_213_134_N.png,LIP,4,88.97822627,1.8407,0.045330584,-0.360658999,1,0,0,NextBu,0.821289173,84,0,84,0,1,ah,Female,31,Asian,2022-08-09_10h50.12.534,FaceAttractiveness,2022.2.2,MacIntel,60.0024001,,,,,,,,
,,,,,232.5225,Extremely  Attractive,Extremely Unattractive,normal,CFD_BF_224_002_N.png,RCHEEK,4,77.82841435,1.1253,0.028927951,-0.377748843,1,0,0,NextBu,0.804891183,85,0,85,0,1,ah,Female,31,Asian,2022-08-09_10h50.12.534,FaceAttractiveness,2022.2.2,MacIntel,60.0024001,,,,,,,,
,,,,,234.7232,Extremely  Attractive,Extremely Unattractive,normal,CFD_BF_214_308_N.png,LIP,4,71.23553241,1.007,0.055070891,-0.371940104,1,0,0,NextBu,0.580891435,86,0,86,0,1,ah,Female,31,Asian,2022-08-09_10h50.12.534,FaceAttractiveness,2022.2.2,MacIntel,60.0024001,,,,,,,,
,,,,,236.5558,Extremely  Attractive,Extremely Unattractive,normal,CFD_AM_233_236_N.png,LIP,4,58.17853009,1.0244,0.017925347,-0.387149161,1,0,0,NextBu,0.774997069,87,0,87,0,1,ah,Female,31,Asian,2022-08-09_10h50.12.534,FaceAttractiveness,2022.2.2,MacIntel,60.0024001,,,,,,,,
,,,,,238.5559,Extremely  Attractive,Extremely Unattractive,normal,CFD_AF_245_143_N.png,FOREHEAD,4,50.7989728,1.3241,-0.014293981,-0.362330006,1,0,0,NextBu,0.881650233,88,0,88,0,1,ah,Female,31,Asian,2022-08-09_10h50.12.534,FaceAttractiveness,2022.2.2,MacIntel,60.0024001,,,,,,,,
,,,,,240.9738,Extremely  Attractive,Extremely Unattractive,normal,CFD_AF_237_223_N.png,FOREHEAD,4,38.89069734,1.1241,-0.044816985,-0.388574219,1,0,0,NextBu,0.705940852,89,0,89,0,1,ah,Female,31,Asian,2022-08-09_10h50.12.534,FaceAttractiveness,2022.2.2,MacIntel,60.0024001,,,,,,,,
,,,,,243.0395,Extremely  Attractive,Extremely Unattractive,normal,CFD_AF_231_357_N.png,RCHEEK,4,56.60481771,1.0122,0.019014034,-0.394180411,1,0,0,NextBu,0.859642629,90,0,90,0,1,ah,Female,31,Asian,2022-08-09_10h50.12.534,FaceAttractiveness,2022.2.2,MacIntel,60.0024001,,,,,,,,
,,,,,245.0727,Extremely  Attractive,Extremely Unattractive,normal,136_M_M_N_A.png,NASALTIP,4,48.28703704,1.1098,0.03614728,-0.364420573,1,0,0,NextBu,0.706489487,91,0,91,0,1,ah,Female,31,Asian,2022-08-09_10h50.12.534,FaceAttractiveness,2022.2.2,MacIntel,60.0024001,,,,,,,,
,,,,,247.0896,Extremely  Attractive,Extremely Unattractive,normal,087_M_M_N_A.png,LIP,4,46.47460938,2.5473,0.005092593,-0.419158709,1,0,0,NextBu,0.782551483,92,0,92,0,1,ah,Female,31,Asian,2022-08-09_10h50.12.534,FaceAttractiveness,2022.2.2,MacIntel,60.0024001,,,,,,,,
,,,,,250.656,Extremely  Attractive,Extremely Unattractive,normal,035_M_F_N_A.png,LCHEEK,4,56.57154225,0.9416,0.028714554,-0.383423756,1,0,0,NextBu,0.818573496,93,0,93,0,1,ah,Female,31,Asian,2022-08-09_10h50.12.534,FaceAttractiveness,2022.2.2,MacIntel,60.0024001,,,,,,,,
,,,,,252.574,Extremely  Attractive,Extremely Unattractive,normal,006_M_F_N_A.png,LCHEEK,4,50.16384549,1.9232,0.03072555,-0.371375868,1,0,0,NextBu,0.534492381,94,0,94,0,1,ah,Female,31,Asian,2022-08-09_10h50.12.534,FaceAttractiveness,2022.2.2,MacIntel,60.0024001,,,,,,,,
,,,,,,,,,,,,,,,,,,,,,,,,,,ah,Female,31,Asian,2022-08-09_10h50.12.534,FaceAttractiveness,2022.2.2,MacIntel,60.0024001,0,0,0,0,1,Attractiveness,Extremely  Attractive,Extremely Unattractive
,,,,,,,,,,,,,,,,,,,,,,,,,,ah,Female,31,Asian,2022-08-09_10h50.12.534,FaceAttractiveness,2022.2.2,MacIntel,60.0024001,,,,,,,,
