mouse.x,mouse.y,mouse.leftButton,mouse.midButton,mouse.rightButton,onsetTime,leftText,rightText,sliderDirection,face,lesion,block,slider.response,slider.rt,mouse_5.x,mouse_5.y,mouse_5.leftButton,mouse_5.midButton,mouse_5.rightButton,mouse_5.clicked_name,ITI,originalFaceTrials.thisRepN,originalFaceTrials.thisTrialN,originalFaceTrials.thisN,originalFaceTrials.thisIndex,originalFaceTrials.ran,Name,Gender,Age,Ethnicity,date,expName,psychopyVersion,OS,frameRate,participant,study_id,session,RatingBlockOrder.thisRepN,RatingBlockOrder.thisTrialN,RatingBlockOrder.thisN,RatingBlockOrder.thisIndex,RatingBlockOrder.ran,Task,LeftLabel,RightLabel
0.418518519,-0.221296296,1,0,0,5.6155,Extremely Unattractive,Extremely  Attractive,mirrored,CFD_WM_212_097_N.png,RCHEEK,0,24.16666667,3.9362,0.046296296,-0.410185185,1,0,0,NextBu,0.690930261,0,0,0,0,1,Can you ask this? ,M,36,White,2022-07-28_15h44.46.337,FaceAttractiveness,2022.2.2,Win32,59.74429442,62d28f109e5c437c89dac211,62e28ca91edcb69c59d3a195,62e2a12ef1fa5a067e6b0849,,,,,,,,
,,,,,10.914,Extremely Unattractive,Extremely  Attractive,mirrored,CFD_WF_250_167_N.png,RCHEEK,0,16.75925926,1.5477,0.032407407,-0.406481481,1,0,0,NextBu,0.782291179,1,0,1,0,1,Can you ask this? ,M,36,White,2022-07-28_15h44.46.337,FaceAttractiveness,2022.2.2,Win32,59.74429442,62d28f109e5c437c89dac211,62e28ca91edcb69c59d3a195,62e2a12ef1fa5a067e6b0849,,,,,,,,
,,,,,13.747,Extremely Unattractive,Extremely  Attractive,mirrored,CFD_WF_200_099_N.png,NASALTIP,0,20.74074074,2.5231,-0.000925926,-0.403703704,1,0,0,NextBu,0.93499149,2,0,2,0,1,Can you ask this? ,M,36,White,2022-07-28_15h44.46.337,FaceAttractiveness,2022.2.2,Win32,59.74429442,62d28f109e5c437c89dac211,62e28ca91edcb69c59d3a195,62e2a12ef1fa5a067e6b0849,,,,,,,,
,,,,,17.7805,Extremely Unattractive,Extremely  Attractive,mirrored,CFD_WF_002_004_N.png,LCHEEK,0,9.074074074,1.5453,-0.009259259,-0.406481481,1,0,0,NextBu,0.669679826,3,0,3,0,1,Can you ask this? ,M,36,White,2022-07-28_15h44.46.337,FaceAttractiveness,2022.2.2,Win32,59.74429442,62d28f109e5c437c89dac211,62e28ca91edcb69c59d3a195,62e2a12ef1fa5a067e6b0849,,,,,,,,
,,,,,20.5145,Extremely Unattractive,Extremely  Attractive,mirrored,CFD_LM_203_026_N.png,LIP,0,39.07407407,2.1886,0.034259259,-0.42037037,1,0,0,NextBu,0.611815911,4,0,4,0,1,Can you ask this? ,M,36,White,2022-07-28_15h44.46.337,FaceAttractiveness,2022.2.2,Win32,59.74429442,62d28f109e5c437c89dac211,62e28ca91edcb69c59d3a195,62e2a12ef1fa5a067e6b0849,,,,,,,,
,,,,,23.764,Extremely Unattractive,Extremely  Attractive,mirrored,CFD_LM_201_057_N.png,LIP,0,37.59259259,2.5296,-0.05,-0.374074074,1,0,0,NextBu,0.847013346,5,0,5,0,1,Can you ask this? ,M,36,White,2022-07-28_15h44.46.337,FaceAttractiveness,2022.2.2,Win32,59.74429442,62d28f109e5c437c89dac211,62e28ca91edcb69c59d3a195,62e2a12ef1fa5a067e6b0849,,,,,,,,
,,,,,27.5306,Extremely Unattractive,Extremely  Attractive,mirrored,CFD_LF_224_176_N.png,LIP,0,29.25925926,2.4045,-0.048148148,-0.359259259,1,0,0,NextBu,0.738809284,6,0,6,0,1,Can you ask this? ,M,36,White,2022-07-28_15h44.46.337,FaceAttractiveness,2022.2.2,Win32,59.74429442,62d28f109e5c437c89dac211,62e28ca91edcb69c59d3a195,62e2a12ef1fa5a067e6b0849,,,,,,,,
,,,,,31.1305,Extremely Unattractive,Extremely  Attractive,mirrored,CFD_BM_234_172_N.png,FOREHEAD,0,51.57407407,2.9316,0.068518519,-0.427777778,1,0,0,NextBu,0.722275777,7,0,7,0,1,Can you ask this? ,M,36,White,2022-07-28_15h44.46.337,FaceAttractiveness,2022.2.2,Win32,59.74429442,62d28f109e5c437c89dac211,62e28ca91edcb69c59d3a195,62e2a12ef1fa5a067e6b0849,,,,,,,,
,,,,,35.2305,Extremely Unattractive,Extremely  Attractive,mirrored,CFD_BM_213_134_N.png,LIP,0,30.74074074,2.0394,-0.021296296,-0.393518519,1,0,0,NextBu,0.733079224,8,0,8,0,1,Can you ask this? ,M,36,White,2022-07-28_15h44.46.337,FaceAttractiveness,2022.2.2,Win32,59.74429442,62d28f109e5c437c89dac211,62e28ca91edcb69c59d3a195,62e2a12ef1fa5a067e6b0849,,,,,,,,
,,,,,38.4973,Extremely Unattractive,Extremely  Attractive,mirrored,CFD_BF_224_002_N.png,LIP,0,20.74074074,3.3415,-0.012037037,-0.385185185,1,0,0,NextBu,0.923466079,9,0,9,0,1,Can you ask this? ,M,36,White,2022-07-28_15h44.46.337,FaceAttractiveness,2022.2.2,Win32,59.74429442,62d28f109e5c437c89dac211,62e28ca91edcb69c59d3a195,62e2a12ef1fa5a067e6b0849,,,,,,,,
,,,,,43.1141,Extremely Unattractive,Extremely  Attractive,mirrored,CFD_BF_214_308_N.png,LIP,0,48.7037037,3.5715,0.041666667,-0.382407407,1,0,0,NextBu,0.578738721,10,0,10,0,1,Can you ask this? ,M,36,White,2022-07-28_15h44.46.337,FaceAttractiveness,2022.2.2,Win32,59.74429442,62d28f109e5c437c89dac211,62e28ca91edcb69c59d3a195,62e2a12ef1fa5a067e6b0849,,,,,,,,
,,,,,47.6808,Extremely Unattractive,Extremely  Attractive,mirrored,CFD_AM_233_236_N.png,LIP,0,41.2037037,1.5731,0.003703704,-0.378703704,1,0,0,NextBu,0.934287738,11,0,11,0,1,Can you ask this? ,M,36,White,2022-07-28_15h44.46.337,FaceAttractiveness,2022.2.2,Win32,59.74429442,62d28f109e5c437c89dac211,62e28ca91edcb69c59d3a195,62e2a12ef1fa5a067e6b0849,,,,,,,,
,,,,,50.5477,Extremely Unattractive,Extremely  Attractive,mirrored,CFD_AF_245_143_N.png,LCHEEK,0,52.5,2.1951,0.039814815,-0.400925926,1,0,0,NextBu,0.593857156,12,0,12,0,1,Can you ask this? ,M,36,White,2022-07-28_15h44.46.337,FaceAttractiveness,2022.2.2,Win32,59.74429442,62d28f109e5c437c89dac211,62e28ca91edcb69c59d3a195,62e2a12ef1fa5a067e6b0849,,,,,,,,
,,,,,53.7475,Extremely Unattractive,Extremely  Attractive,mirrored,CFD_AF_237_223_N.png,LCHEEK,0,53.88888889,1.7393,0.022222222,-0.4,1,0,0,NextBu,0.730504667,13,0,13,0,1,Can you ask this? ,M,36,White,2022-07-28_15h44.46.337,FaceAttractiveness,2022.2.2,Win32,59.74429442,62d28f109e5c437c89dac211,62e28ca91edcb69c59d3a195,62e2a12ef1fa5a067e6b0849,,,,,,,,
,,,,,56.6308,Extremely Unattractive,Extremely  Attractive,mirrored,CFD_AF_231_357_N.png,LCHEEK,0,29.07407407,1.9443,-0.008333333,-0.376851852,1,0,0,NextBu,0.683959311,14,0,14,0,1,Can you ask this? ,M,36,White,2022-07-28_15h44.46.337,FaceAttractiveness,2022.2.2,Win32,59.74429442,62d28f109e5c437c89dac211,62e28ca91edcb69c59d3a195,62e2a12ef1fa5a067e6b0849,,,,,,,,
,,,,,59.6807,Extremely Unattractive,Extremely  Attractive,mirrored,136_M_M_N_A.png,LCHEEK,0,45.46296296,1.7734,0.025,-0.37962963,1,0,0,NextBu,0.741054495,15,0,15,0,1,Can you ask this? ,M,36,White,2022-07-28_15h44.46.337,FaceAttractiveness,2022.2.2,Win32,59.74429442,62d28f109e5c437c89dac211,62e28ca91edcb69c59d3a195,62e2a12ef1fa5a067e6b0849,,,,,,,,
,,,,,62.5807,Extremely Unattractive,Extremely  Attractive,mirrored,087_M_M_N_A.png,NASALTIP,0,54.25925926,1.6062,0.028703704,-0.394444444,1,0,0,NextBu,0.766303103,16,0,16,0,1,Can you ask this? ,M,36,White,2022-07-28_15h44.46.337,FaceAttractiveness,2022.2.2,Win32,59.74429442,62d28f109e5c437c89dac211,62e28ca91edcb69c59d3a195,62e2a12ef1fa5a067e6b0849,,,,,,,,
,,,,,65.3973,Extremely Unattractive,Extremely  Attractive,mirrored,035_M_F_N_A.png,NASALTIP,0,17.22222222,1.5874,0,-0.391666667,1,0,0,NextBu,0.634025378,17,0,17,0,1,Can you ask this? ,M,36,White,2022-07-28_15h44.46.337,FaceAttractiveness,2022.2.2,Win32,59.74429442,62d28f109e5c437c89dac211,62e28ca91edcb69c59d3a195,62e2a12ef1fa5a067e6b0849,,,,,,,,
,,,,,68.0975,Extremely Unattractive,Extremely  Attractive,mirrored,006_M_F_N_A.png,NASALTIP,0,40.83333333,2.4285,0.028703704,-0.377777778,1,0,0,NextBu,0.865152625,18,0,18,0,1,Can you ask this? ,M,36,White,2022-07-28_15h44.46.337,FaceAttractiveness,2022.2.2,Win32,59.74429442,62d28f109e5c437c89dac211,62e28ca91edcb69c59d3a195,62e2a12ef1fa5a067e6b0849,,,,,,,,
,,,,,71.7808,Extremely Unattractive,Extremely  Attractive,mirrored,CFD_WM_212_097_N.png,LIP,1,36.01851852,1.729,0.003703704,-0.415740741,1,0,0,NextBu,0.972373251,19,0,19,0,1,Can you ask this? ,M,36,White,2022-07-28_15h44.46.337,FaceAttractiveness,2022.2.2,Win32,59.74429442,62d28f109e5c437c89dac211,62e28ca91edcb69c59d3a195,62e2a12ef1fa5a067e6b0849,,,,,,,,
,,,,,74.9976,Extremely Unattractive,Extremely  Attractive,mirrored,CFD_WF_250_167_N.png,FOREHEAD,1,19.72222222,1.8639,0.007407407,-0.378703704,1,0,0,NextBu,0.700282048,20,0,20,0,1,Can you ask this? ,M,36,White,2022-07-28_15h44.46.337,FaceAttractiveness,2022.2.2,Win32,59.74429442,62d28f109e5c437c89dac211,62e28ca91edcb69c59d3a195,62e2a12ef1fa5a067e6b0849,,,,,,,,
,,,,,78.0141,Extremely Unattractive,Extremely  Attractive,mirrored,CFD_WF_200_099_N.png,FOREHEAD,1,47.77777778,2.7445,0.006481481,-0.388888889,1,0,0,NextBu,0.946980205,21,0,21,0,1,Can you ask this? ,M,36,White,2022-07-28_15h44.46.337,FaceAttractiveness,2022.2.2,Win32,59.74429442,62d28f109e5c437c89dac211,62e28ca91edcb69c59d3a195,62e2a12ef1fa5a067e6b0849,,,,,,,,
,,,,,82.0973,Extremely Unattractive,Extremely  Attractive,mirrored,CFD_WF_002_004_N.png,FOREHEAD,1,14.35185185,1.5567,0.024074074,-0.387037037,1,0,0,NextBu,0.764833452,22,0,22,0,1,Can you ask this? ,M,36,White,2022-07-28_15h44.46.337,FaceAttractiveness,2022.2.2,Win32,59.74429442,62d28f109e5c437c89dac211,62e28ca91edcb69c59d3a195,62e2a12ef1fa5a067e6b0849,,,,,,,,
,,,,,84.9976,Extremely Unattractive,Extremely  Attractive,mirrored,CFD_LM_203_026_N.png,LCHEEK,1,38.14814815,2.3133,0.023148148,-0.416666667,1,0,0,NextBu,0.52685615,23,0,23,0,1,Can you ask this? ,M,36,White,2022-07-28_15h44.46.337,FaceAttractiveness,2022.2.2,Win32,59.74429442,62d28f109e5c437c89dac211,62e28ca91edcb69c59d3a195,62e2a12ef1fa5a067e6b0849,,,,,,,,
,,,,,88.3807,Extremely Unattractive,Extremely  Attractive,mirrored,CFD_LM_201_057_N.png,LCHEEK,1,52.31481481,1.858,0.008333333,-0.375925926,1,0,0,NextBu,0.588099221,24,0,24,0,1,Can you ask this? ,M,36,White,2022-07-28_15h44.46.337,FaceAttractiveness,2022.2.2,Win32,59.74429442,62d28f109e5c437c89dac211,62e28ca91edcb69c59d3a195,62e2a12ef1fa5a067e6b0849,,,,,,,,
,,,,,91.1975,Extremely Unattractive,Extremely  Attractive,mirrored,CFD_LF_224_176_N.png,NASALTIP,1,39.81481481,1.9392,0.017592593,-0.387962963,1,0,0,NextBu,0.750146486,25,0,25,0,1,Can you ask this? ,M,36,White,2022-07-28_15h44.46.337,FaceAttractiveness,2022.2.2,Win32,59.74429442,62d28f109e5c437c89dac211,62e28ca91edcb69c59d3a195,62e2a12ef1fa5a067e6b0849,,,,,,,,
,,,,,94.2808,Extremely Unattractive,Extremely  Attractive,mirrored,CFD_BM_234_172_N.png,NASALTIP,1,52.5,2.5042,-0.005555556,-0.357407407,1,0,0,NextBu,0.836212874,26,0,26,0,1,Can you ask this? ,M,36,White,2022-07-28_15h44.46.337,FaceAttractiveness,2022.2.2,Win32,59.74429442,62d28f109e5c437c89dac211,62e28ca91edcb69c59d3a195,62e2a12ef1fa5a067e6b0849,,,,,,,,
,,,,,97.9807,Extremely Unattractive,Extremely  Attractive,mirrored,CFD_BM_213_134_N.png,NASALTIP,1,27.68518519,1.6398,0.003703704,-0.365740741,1,0,0,NextBu,0.719847999,27,0,27,0,1,Can you ask this? ,M,36,White,2022-07-28_15h44.46.337,FaceAttractiveness,2022.2.2,Win32,59.74429442,62d28f109e5c437c89dac211,62e28ca91edcb69c59d3a195,62e2a12ef1fa5a067e6b0849,,,,,,,,
,,,,,100.731,Extremely Unattractive,Extremely  Attractive,mirrored,CFD_BF_224_002_N.png,NASALTIP,1,28.98148148,2.3726,0.005555556,-0.365740741,1,0,0,NextBu,0.952019705,28,0,28,0,1,Can you ask this? ,M,36,White,2022-07-28_15h44.46.337,FaceAttractiveness,2022.2.2,Win32,59.74429442,62d28f109e5c437c89dac211,62e28ca91edcb69c59d3a195,62e2a12ef1fa5a067e6b0849,,,,,,,,
,,,,,104.4306,Extremely Unattractive,Extremely  Attractive,mirrored,CFD_BF_214_308_N.png,LCHEEK,1,44.25925926,1.9563,0.025925926,-0.428703704,1,0,0,NextBu,0.673672188,29,0,29,0,1,Can you ask this? ,M,36,White,2022-07-28_15h44.46.337,FaceAttractiveness,2022.2.2,Win32,59.74429442,62d28f109e5c437c89dac211,62e28ca91edcb69c59d3a195,62e2a12ef1fa5a067e6b0849,,,,,,,,
,,,,,107.5811,Extremely Unattractive,Extremely  Attractive,mirrored,CFD_AM_233_236_N.png,NASALTIP,1,28.51851852,1.922,0.023148148,-0.363888889,1,0,0,NextBu,0.963167091,30,0,30,0,1,Can you ask this? ,M,36,White,2022-07-28_15h44.46.337,FaceAttractiveness,2022.2.2,Win32,59.74429442,62d28f109e5c437c89dac211,62e28ca91edcb69c59d3a195,62e2a12ef1fa5a067e6b0849,,,,,,,,
,,,,,110.8142,Extremely Unattractive,Extremely  Attractive,mirrored,CFD_AF_245_143_N.png,NASALTIP,1,48.88888889,2.0797,0.027777778,-0.409259259,1,0,0,NextBu,0.722328828,31,0,31,0,1,Can you ask this? ,M,36,White,2022-07-28_15h44.46.337,FaceAttractiveness,2022.2.2,Win32,59.74429442,62d28f109e5c437c89dac211,62e28ca91edcb69c59d3a195,62e2a12ef1fa5a067e6b0849,,,,,,,,
,,,,,113.9976,Extremely Unattractive,Extremely  Attractive,mirrored,CFD_AF_237_223_N.png,NASALTIP,1,46.2037037,1.6097,0.027777778,-0.383333333,1,0,0,NextBu,0.588582259,32,0,32,0,1,Can you ask this? ,M,36,White,2022-07-28_15h44.46.337,FaceAttractiveness,2022.2.2,Win32,59.74429442,62d28f109e5c437c89dac211,62e28ca91edcb69c59d3a195,62e2a12ef1fa5a067e6b0849,,,,,,,,
,,,,,116.5142,Extremely Unattractive,Extremely  Attractive,mirrored,CFD_AF_231_357_N.png,FOREHEAD,1,22.40740741,1.7243,-0.040740741,-0.384259259,1,0,0,NextBu,0.565898403,33,0,33,0,1,Can you ask this? ,M,36,White,2022-07-28_15h44.46.337,FaceAttractiveness,2022.2.2,Win32,59.74429442,62d28f109e5c437c89dac211,62e28ca91edcb69c59d3a195,62e2a12ef1fa5a067e6b0849,,,,,,,,
,,,,,119.6143,Extremely Unattractive,Extremely  Attractive,mirrored,136_M_M_N_A.png,RCHEEK,1,47.59259259,1.4996,0,-0.398148148,1,0,0,NextBu,0.629575273,34,0,34,0,1,Can you ask this? ,M,36,White,2022-07-28_15h44.46.337,FaceAttractiveness,2022.2.2,Win32,59.74429442,62d28f109e5c437c89dac211,62e28ca91edcb69c59d3a195,62e2a12ef1fa5a067e6b0849,,,,,,,,
,,,,,122.2475,Extremely Unattractive,Extremely  Attractive,mirrored,087_M_M_N_A.png,LIP,1,55.37037037,2.0315,-0.001851852,-0.378703704,1,0,0,NextBu,0.629301675,35,0,35,0,1,Can you ask this? ,M,36,White,2022-07-28_15h44.46.337,FaceAttractiveness,2022.2.2,Win32,59.74429442,62d28f109e5c437c89dac211,62e28ca91edcb69c59d3a195,62e2a12ef1fa5a067e6b0849,,,,,,,,
,,,,,125.2809,Extremely Unattractive,Extremely  Attractive,mirrored,035_M_F_N_A.png,LIP,1,22.77777778,1.4543,0.00462963,-0.392592593,1,0,0,NextBu,0.869851991,36,0,36,0,1,Can you ask this? ,M,36,White,2022-07-28_15h44.46.337,FaceAttractiveness,2022.2.2,Win32,59.74429442,62d28f109e5c437c89dac211,62e28ca91edcb69c59d3a195,62e2a12ef1fa5a067e6b0849,,,,,,,,
,,,,,127.9476,Extremely Unattractive,Extremely  Attractive,mirrored,006_M_F_N_A.png,LIP,1,28.14814815,2.5068,0.012037037,-0.384259259,1,0,0,NextBu,0.814180218,37,0,37,0,1,Can you ask this? ,M,36,White,2022-07-28_15h44.46.337,FaceAttractiveness,2022.2.2,Win32,59.74429442,62d28f109e5c437c89dac211,62e28ca91edcb69c59d3a195,62e2a12ef1fa5a067e6b0849,,,,,,,,
,,,,,131.7143,Extremely Unattractive,Extremely  Attractive,mirrored,CFD_WM_212_097_N.png,LCHEEK,2,44.53703704,1.8562,0.038888889,-0.360185185,1,0,0,NextBu,0.656219025,38,0,38,0,1,Can you ask this? ,M,36,White,2022-07-28_15h44.46.337,FaceAttractiveness,2022.2.2,Win32,59.74429442,62d28f109e5c437c89dac211,62e28ca91edcb69c59d3a195,62e2a12ef1fa5a067e6b0849,,,,,,,,
,,,,,134.5645,Extremely Unattractive,Extremely  Attractive,mirrored,CFD_WF_250_167_N.png,LCHEEK,2,20.55555556,1.4411,-0.034259259,-0.385185185,1,0,0,NextBu,0.791686563,39,0,39,0,1,Can you ask this? ,M,36,White,2022-07-28_15h44.46.337,FaceAttractiveness,2022.2.2,Win32,59.74429442,62d28f109e5c437c89dac211,62e28ca91edcb69c59d3a195,62e2a12ef1fa5a067e6b0849,,,,,,,,
,,,,,137.2143,Extremely Unattractive,Extremely  Attractive,mirrored,CFD_WF_200_099_N.png,LCHEEK,2,45.55555556,1.7758,0.000925926,-0.376851852,1,0,0,NextBu,0.674996824,40,0,40,0,1,Can you ask this? ,M,36,White,2022-07-28_15h44.46.337,FaceAttractiveness,2022.2.2,Win32,59.74429442,62d28f109e5c437c89dac211,62e28ca91edcb69c59d3a195,62e2a12ef1fa5a067e6b0849,,,,,,,,
,,,,,140.0311,Extremely Unattractive,Extremely  Attractive,mirrored,CFD_WF_002_004_N.png,NASALTIP,2,6.851851852,3.7114,0.007407407,-0.425925926,1,0,0,NextBu,0.590367906,41,0,41,0,1,Can you ask this? ,M,36,White,2022-07-28_15h44.46.337,FaceAttractiveness,2022.2.2,Win32,59.74429442,62d28f109e5c437c89dac211,62e28ca91edcb69c59d3a195,62e2a12ef1fa5a067e6b0849,,,,,,,,
,,,,,144.681,Extremely Unattractive,Extremely  Attractive,mirrored,CFD_LM_203_026_N.png,FOREHEAD,2,53.51851852,4.7583,0.025,-0.375925926,1,0,0,NextBu,0.591393968,42,0,42,0,1,Can you ask this? ,M,36,White,2022-07-28_15h44.46.337,FaceAttractiveness,2022.2.2,Win32,59.74429442,62d28f109e5c437c89dac211,62e28ca91edcb69c59d3a195,62e2a12ef1fa5a067e6b0849,,,,,,,,
,,,,,150.3309,Extremely Unattractive,Extremely  Attractive,mirrored,CFD_LM_201_057_N.png,FOREHEAD,2,52.96296296,3.8748,0.018518519,-0.376851852,1,0,0,NextBu,0.543212598,43,0,43,0,1,Can you ask this? ,M,36,White,2022-07-28_15h44.46.337,FaceAttractiveness,2022.2.2,Win32,59.74429442,62d28f109e5c437c89dac211,62e28ca91edcb69c59d3a195,62e2a12ef1fa5a067e6b0849,,,,,,,,
,,,,,155.1143,Extremely Unattractive,Extremely  Attractive,mirrored,CFD_LF_224_176_N.png,RCHEEK,2,61.57407407,3.4917,0.052777778,-0.401851852,1,0,0,NextBu,0.749273138,44,0,44,0,1,Can you ask this? ,M,36,White,2022-07-28_15h44.46.337,FaceAttractiveness,2022.2.2,Win32,59.74429442,62d28f109e5c437c89dac211,62e28ca91edcb69c59d3a195,62e2a12ef1fa5a067e6b0849,,,,,,,,
,,,,,159.8144,Extremely Unattractive,Extremely  Attractive,mirrored,CFD_BM_234_172_N.png,LIP,2,47.96296296,2.1606,0.015740741,-0.358333333,1,0,0,NextBu,0.607756696,45,0,45,0,1,Can you ask this? ,M,36,White,2022-07-28_15h44.46.337,FaceAttractiveness,2022.2.2,Win32,59.74429442,62d28f109e5c437c89dac211,62e28ca91edcb69c59d3a195,62e2a12ef1fa5a067e6b0849,,,,,,,,
,,,,,162.9643,Extremely Unattractive,Extremely  Attractive,mirrored,CFD_BM_213_134_N.png,FOREHEAD,2,20.92592593,2.7295,0.044444444,-0.407407407,1,0,0,NextBu,0.735291612,46,0,46,0,1,Can you ask this? ,M,36,White,2022-07-28_15h44.46.337,FaceAttractiveness,2022.2.2,Win32,59.74429442,62d28f109e5c437c89dac211,62e28ca91edcb69c59d3a195,62e2a12ef1fa5a067e6b0849,,,,,,,,
,,,,,167.2143,Extremely Unattractive,Extremely  Attractive,mirrored,CFD_BF_224_002_N.png,FOREHEAD,2,22.22222222,2.9224,0.048148148,-0.414814815,1,0,0,NextBu,0.86433023,47,0,47,0,1,Can you ask this? ,M,36,White,2022-07-28_15h44.46.337,FaceAttractiveness,2022.2.2,Win32,59.74429442,62d28f109e5c437c89dac211,62e28ca91edcb69c59d3a195,62e2a12ef1fa5a067e6b0849,,,,,,,,
,,,,,171.3644,Extremely Unattractive,Extremely  Attractive,mirrored,CFD_BF_214_308_N.png,NASALTIP,2,29.90740741,2.4416,-0.005555556,-0.389814815,1,0,0,NextBu,0.848940995,48,0,48,0,1,Can you ask this? ,M,36,White,2022-07-28_15h44.46.337,FaceAttractiveness,2022.2.2,Win32,59.74429442,62d28f109e5c437c89dac211,62e28ca91edcb69c59d3a195,62e2a12ef1fa5a067e6b0849,,,,,,,,
,,,,,176.2204,Extremely Unattractive,Extremely  Attractive,mirrored,CFD_AM_233_236_N.png,FOREHEAD,2,34.53703704,3.9217,0.02962963,-0.397222222,1,0,0,NextBu,0.703112509,49,0,49,0,1,Can you ask this? ,M,36,White,2022-07-28_15h44.46.337,FaceAttractiveness,2022.2.2,Win32,59.74429442,62d28f109e5c437c89dac211,62e28ca91edcb69c59d3a195,62e2a12ef1fa5a067e6b0849,,,,,,,,
,,,,,181.2812,Extremely Unattractive,Extremely  Attractive,mirrored,CFD_AF_245_143_N.png,RCHEEK,2,54.53703704,2.8454,0,-0.386111111,1,0,0,NextBu,0.529761544,50,0,50,0,1,Can you ask this? ,M,36,White,2022-07-28_15h44.46.337,FaceAttractiveness,2022.2.2,Win32,59.74429442,62d28f109e5c437c89dac211,62e28ca91edcb69c59d3a195,62e2a12ef1fa5a067e6b0849,,,,,,,,
,,,,,184.9311,Extremely Unattractive,Extremely  Attractive,mirrored,CFD_AF_237_223_N.png,RCHEEK,2,58.33333333,2.0748,0.02962963,-0.411111111,1,0,0,NextBu,0.882552306,51,0,51,0,1,Can you ask this? ,M,36,White,2022-07-28_15h44.46.337,FaceAttractiveness,2022.2.2,Win32,59.74429442,62d28f109e5c437c89dac211,62e28ca91edcb69c59d3a195,62e2a12ef1fa5a067e6b0849,,,,,,,,
,,,,,188.2645,Extremely Unattractive,Extremely  Attractive,mirrored,CFD_AF_231_357_N.png,LIP,2,20.27777778,2.4877,0.050925926,-0.39537037,1,0,0,NextBu,0.590684407,52,0,52,0,1,Can you ask this? ,M,36,White,2022-07-28_15h44.46.337,FaceAttractiveness,2022.2.2,Win32,59.74429442,62d28f109e5c437c89dac211,62e28ca91edcb69c59d3a195,62e2a12ef1fa5a067e6b0849,,,,,,,,
,,,,,191.7145,Extremely Unattractive,Extremely  Attractive,mirrored,136_M_M_N_A.png,LIP,2,46.75925926,2.4278,0.027777778,-0.387037037,1,0,0,NextBu,0.753626133,53,0,53,0,1,Can you ask this? ,M,36,White,2022-07-28_15h44.46.337,FaceAttractiveness,2022.2.2,Win32,59.74429442,62d28f109e5c437c89dac211,62e28ca91edcb69c59d3a195,62e2a12ef1fa5a067e6b0849,,,,,,,,
,,,,,195.2645,Extremely Unattractive,Extremely  Attractive,mirrored,087_M_M_N_A.png,RCHEEK,2,57.5,2.2455,0.043518519,-0.412037037,1,0,0,NextBu,0.64563846,54,0,54,0,1,Can you ask this? ,M,36,White,2022-07-28_15h44.46.337,FaceAttractiveness,2022.2.2,Win32,59.74429442,62d28f109e5c437c89dac211,62e28ca91edcb69c59d3a195,62e2a12ef1fa5a067e6b0849,,,,,,,,
,,,,,198.6479,Extremely Unattractive,Extremely  Attractive,mirrored,035_M_F_N_A.png,LCHEEK,2,22.87037037,1.7594,0.022222222,-0.392592593,1,0,0,NextBu,0.553759683,55,0,55,0,1,Can you ask this? ,M,36,White,2022-07-28_15h44.46.337,FaceAttractiveness,2022.2.2,Win32,59.74429442,62d28f109e5c437c89dac211,62e28ca91edcb69c59d3a195,62e2a12ef1fa5a067e6b0849,,,,,,,,
,,,,,201.2478,Extremely Unattractive,Extremely  Attractive,mirrored,006_M_F_N_A.png,LCHEEK,2,43.98148148,3.3381,-0.000925926,-0.39537037,1,0,0,NextBu,0.937098477,56,0,56,0,1,Can you ask this? ,M,36,White,2022-07-28_15h44.46.337,FaceAttractiveness,2022.2.2,Win32,59.74429442,62d28f109e5c437c89dac211,62e28ca91edcb69c59d3a195,62e2a12ef1fa5a067e6b0849,,,,,,,,
,,,,,205.8311,Extremely Unattractive,Extremely  Attractive,mirrored,CFD_WM_212_097_N.png,NASALTIP,3,29.72222222,2.1751,0.025,-0.403703704,1,0,0,NextBu,0.85010734,57,0,57,0,1,Can you ask this? ,M,36,White,2022-07-28_15h44.46.337,FaceAttractiveness,2022.2.2,Win32,59.74429442,62d28f109e5c437c89dac211,62e28ca91edcb69c59d3a195,62e2a12ef1fa5a067e6b0849,,,,,,,,
,,,,,209.2814,Extremely Unattractive,Extremely  Attractive,mirrored,CFD_WF_250_167_N.png,LIP,3,13.33333333,1.8045,0.000925926,-0.374074074,1,0,0,NextBu,0.749360625,58,0,58,0,1,Can you ask this? ,M,36,White,2022-07-28_15h44.46.337,FaceAttractiveness,2022.2.2,Win32,59.74429442,62d28f109e5c437c89dac211,62e28ca91edcb69c59d3a195,62e2a12ef1fa5a067e6b0849,,,,,,,,
,,,,,212.3818,Extremely Unattractive,Extremely  Attractive,mirrored,CFD_WF_200_099_N.png,RCHEEK,3,62.12962963,2.005,-0.003703704,-0.384259259,1,0,0,NextBu,0.701900343,59,0,59,0,1,Can you ask this? ,M,36,White,2022-07-28_15h44.46.337,FaceAttractiveness,2022.2.2,Win32,59.74429442,62d28f109e5c437c89dac211,62e28ca91edcb69c59d3a195,62e2a12ef1fa5a067e6b0849,,,,,,,,
,,,,,215.5145,Extremely Unattractive,Extremely  Attractive,mirrored,CFD_WF_002_004_N.png,LIP,3,9.259259259,1.8115,0.006481481,-0.40462963,1,0,0,NextBu,0.58520968,60,0,60,0,1,Can you ask this? ,M,36,White,2022-07-28_15h44.46.337,FaceAttractiveness,2022.2.2,Win32,59.74429442,62d28f109e5c437c89dac211,62e28ca91edcb69c59d3a195,62e2a12ef1fa5a067e6b0849,,,,,,,,
,,,,,218.498,Extremely Unattractive,Extremely  Attractive,mirrored,CFD_LM_203_026_N.png,NASALTIP,3,49.53703704,1.5242,0.025925926,-0.401851852,1,0,0,NextBu,0.783635668,61,0,61,0,1,Can you ask this? ,M,36,White,2022-07-28_15h44.46.337,FaceAttractiveness,2022.2.2,Win32,59.74429442,62d28f109e5c437c89dac211,62e28ca91edcb69c59d3a195,62e2a12ef1fa5a067e6b0849,,,,,,,,
,,,,,221.2647,Extremely Unattractive,Extremely  Attractive,mirrored,CFD_LM_201_057_N.png,NASALTIP,3,38.05555556,1.9893,0.006481481,-0.37962963,1,0,0,NextBu,0.789704453,62,0,62,0,1,Can you ask this? ,M,36,White,2022-07-28_15h44.46.337,FaceAttractiveness,2022.2.2,Win32,59.74429442,62d28f109e5c437c89dac211,62e28ca91edcb69c59d3a195,62e2a12ef1fa5a067e6b0849,,,,,,,,
,,,,,224.4147,Extremely Unattractive,Extremely  Attractive,mirrored,CFD_LF_224_176_N.png,LCHEEK,3,52.68518519,1.9752,-0.005555556,-0.398148148,1,0,0,NextBu,0.673457466,63,0,63,0,1,Can you ask this? ,M,36,White,2022-07-28_15h44.46.337,FaceAttractiveness,2022.2.2,Win32,59.74429442,62d28f109e5c437c89dac211,62e28ca91edcb69c59d3a195,62e2a12ef1fa5a067e6b0849,,,,,,,,
,,,,,227.4815,Extremely Unattractive,Extremely  Attractive,mirrored,CFD_BM_234_172_N.png,RCHEEK,3,55.09259259,1.4886,-0.012037037,-0.408333333,1,0,0,NextBu,0.511577772,64,0,64,0,1,Can you ask this? ,M,36,White,2022-07-28_15h44.46.337,FaceAttractiveness,2022.2.2,Win32,59.74429442,62d28f109e5c437c89dac211,62e28ca91edcb69c59d3a195,62e2a12ef1fa5a067e6b0849,,,,,,,,
,,,,,229.8814,Extremely Unattractive,Extremely  Attractive,mirrored,CFD_BM_213_134_N.png,RCHEEK,3,21.57407407,1.9888,0.012962963,-0.385185185,1,0,0,NextBu,0.809038625,65,0,65,0,1,Can you ask this? ,M,36,White,2022-07-28_15h44.46.337,FaceAttractiveness,2022.2.2,Win32,59.74429442,62d28f109e5c437c89dac211,62e28ca91edcb69c59d3a195,62e2a12ef1fa5a067e6b0849,,,,,,,,
,,,,,233.1814,Extremely Unattractive,Extremely  Attractive,mirrored,CFD_BF_224_002_N.png,RCHEEK,3,23.14814815,2.073,0.035185185,-0.371296296,1,0,0,NextBu,0.542616698,66,0,66,0,1,Can you ask this? ,M,36,White,2022-07-28_15h44.46.337,FaceAttractiveness,2022.2.2,Win32,59.74429442,62d28f109e5c437c89dac211,62e28ca91edcb69c59d3a195,62e2a12ef1fa5a067e6b0849,,,,,,,,
,,,,,236.4481,Extremely Unattractive,Extremely  Attractive,mirrored,CFD_BF_214_308_N.png,RCHEEK,3,45.92592593,2.2778,0.055555556,-0.37962963,1,0,0,NextBu,0.825879167,67,0,67,0,1,Can you ask this? ,M,36,White,2022-07-28_15h44.46.337,FaceAttractiveness,2022.2.2,Win32,59.74429442,62d28f109e5c437c89dac211,62e28ca91edcb69c59d3a195,62e2a12ef1fa5a067e6b0849,,,,,,,,
,,,,,239.9145,Extremely Unattractive,Extremely  Attractive,mirrored,CFD_AM_233_236_N.png,RCHEEK,3,36.75925926,1.5716,-0.00462963,-0.387962963,1,0,0,NextBu,0.688819935,68,0,68,0,1,Can you ask this? ,M,36,White,2022-07-28_15h44.46.337,FaceAttractiveness,2022.2.2,Win32,59.74429442,62d28f109e5c437c89dac211,62e28ca91edcb69c59d3a195,62e2a12ef1fa5a067e6b0849,,,,,,,,
,,,,,242.8813,Extremely Unattractive,Extremely  Attractive,mirrored,CFD_AF_245_143_N.png,LIP,3,41.2037037,1.8137,0.037037037,-0.397222222,1,0,0,NextBu,0.689720312,69,0,69,0,1,Can you ask this? ,M,36,White,2022-07-28_15h44.46.337,FaceAttractiveness,2022.2.2,Win32,59.74429442,62d28f109e5c437c89dac211,62e28ca91edcb69c59d3a195,62e2a12ef1fa5a067e6b0849,,,,,,,,
,,,,,245.7982,Extremely Unattractive,Extremely  Attractive,mirrored,CFD_AF_237_223_N.png,FOREHEAD,3,61.57407407,2.8317,0.015740741,-0.410185185,1,0,0,NextBu,0.979416308,70,0,70,0,1,Can you ask this? ,M,36,White,2022-07-28_15h44.46.337,FaceAttractiveness,2022.2.2,Win32,59.74429442,62d28f109e5c437c89dac211,62e28ca91edcb69c59d3a195,62e2a12ef1fa5a067e6b0849,,,,,,,,
,,,,,250.0151,Extremely Unattractive,Extremely  Attractive,mirrored,CFD_AF_231_357_N.png,NASALTIP,3,19.72222222,1.4712,0.031481481,-0.37962963,1,0,0,NextBu,0.565865619,71,0,71,0,1,Can you ask this? ,M,36,White,2022-07-28_15h44.46.337,FaceAttractiveness,2022.2.2,Win32,59.74429442,62d28f109e5c437c89dac211,62e28ca91edcb69c59d3a195,62e2a12ef1fa5a067e6b0849,,,,,,,,
,,,,,252.4649,Extremely Unattractive,Extremely  Attractive,mirrored,136_M_M_N_A.png,FOREHEAD,3,45.83333333,2.3901,0.005555556,-0.417592593,1,0,0,NextBu,0.58214724,72,0,72,0,1,Can you ask this? ,M,36,White,2022-07-28_15h44.46.337,FaceAttractiveness,2022.2.2,Win32,59.74429442,62d28f109e5c437c89dac211,62e28ca91edcb69c59d3a195,62e2a12ef1fa5a067e6b0849,,,,,,,,
,,,,,255.8814,Extremely Unattractive,Extremely  Attractive,mirrored,087_M_M_N_A.png,LCHEEK,3,57.12962963,2.0211,0.014814815,-0.396296296,1,0,0,NextBu,0.515878321,73,0,73,0,1,Can you ask this? ,M,36,White,2022-07-28_15h44.46.337,FaceAttractiveness,2022.2.2,Win32,59.74429442,62d28f109e5c437c89dac211,62e28ca91edcb69c59d3a195,62e2a12ef1fa5a067e6b0849,,,,,,,,
,,,,,259.1147,Extremely Unattractive,Extremely  Attractive,mirrored,035_M_F_N_A.png,FOREHEAD,3,21.57407407,4.1075,0.062037037,-0.375925926,1,0,0,NextBu,0.891520436,74,0,74,0,1,Can you ask this? ,M,36,White,2022-07-28_15h44.46.337,FaceAttractiveness,2022.2.2,Win32,59.74429442,62d28f109e5c437c89dac211,62e28ca91edcb69c59d3a195,62e2a12ef1fa5a067e6b0849,,,,,,,,
,,,,,264.4814,Extremely Unattractive,Extremely  Attractive,mirrored,006_M_F_N_A.png,FOREHEAD,3,29.72222222,3.0879,0.005555556,-0.386111111,1,0,0,NextBu,0.85352501,75,0,75,0,1,Can you ask this? ,M,36,White,2022-07-28_15h44.46.337,FaceAttractiveness,2022.2.2,Win32,59.74429442,62d28f109e5c437c89dac211,62e28ca91edcb69c59d3a195,62e2a12ef1fa5a067e6b0849,,,,,,,,
,,,,,268.8815,Extremely Unattractive,Extremely  Attractive,mirrored,CFD_WM_212_097_N.png,FOREHEAD,4,43.7962963,2.0605,0.02962963,-0.408333333,1,0,0,NextBu,0.571195027,76,0,76,0,1,Can you ask this? ,M,36,White,2022-07-28_15h44.46.337,FaceAttractiveness,2022.2.2,Win32,59.74429442,62d28f109e5c437c89dac211,62e28ca91edcb69c59d3a195,62e2a12ef1fa5a067e6b0849,,,,,,,,
,,,,,271.8981,Extremely Unattractive,Extremely  Attractive,mirrored,CFD_WF_250_167_N.png,NASALTIP,4,6.666666667,1.7811,0.015740741,-0.392592593,1,0,0,NextBu,0.581673367,77,0,77,0,1,Can you ask this? ,M,36,White,2022-07-28_15h44.46.337,FaceAttractiveness,2022.2.2,Win32,59.74429442,62d28f109e5c437c89dac211,62e28ca91edcb69c59d3a195,62e2a12ef1fa5a067e6b0849,,,,,,,,
,,,,,274.7148,Extremely Unattractive,Extremely  Attractive,mirrored,CFD_WF_200_099_N.png,LIP,4,35.18518519,2.9234,0.075925926,-0.417592593,1,0,0,NextBu,0.866505784,78,0,78,0,1,Can you ask this? ,M,36,White,2022-07-28_15h44.46.337,FaceAttractiveness,2022.2.2,Win32,59.74429442,62d28f109e5c437c89dac211,62e28ca91edcb69c59d3a195,62e2a12ef1fa5a067e6b0849,,,,,,,,
,,,,,278.9316,Extremely Unattractive,Extremely  Attractive,mirrored,CFD_WF_002_004_N.png,RCHEEK,4,8.055555556,2.1899,0.023148148,-0.383333333,1,0,0,NextBu,0.869315993,79,0,79,0,1,Can you ask this? ,M,36,White,2022-07-28_15h44.46.337,FaceAttractiveness,2022.2.2,Win32,59.74429442,62d28f109e5c437c89dac211,62e28ca91edcb69c59d3a195,62e2a12ef1fa5a067e6b0849,,,,,,,,
,,,,,282.5146,Extremely Unattractive,Extremely  Attractive,mirrored,CFD_LM_203_026_N.png,RCHEEK,4,44.72222222,3.4915,0.025,-0.385185185,1,0,0,NextBu,0.884039268,80,0,80,0,1,Can you ask this? ,M,36,White,2022-07-28_15h44.46.337,FaceAttractiveness,2022.2.2,Win32,59.74429442,62d28f109e5c437c89dac211,62e28ca91edcb69c59d3a195,62e2a12ef1fa5a067e6b0849,,,,,,,,
,,,,,287.1815,Extremely Unattractive,Extremely  Attractive,mirrored,CFD_LM_201_057_N.png,RCHEEK,4,45.55555556,1.5284,-0.019444444,-0.375,1,0,0,NextBu,0.52306011,81,0,81,0,1,Can you ask this? ,M,36,White,2022-07-28_15h44.46.337,FaceAttractiveness,2022.2.2,Win32,59.74429442,62d28f109e5c437c89dac211,62e28ca91edcb69c59d3a195,62e2a12ef1fa5a067e6b0849,,,,,,,,
,,,,,289.5814,Extremely Unattractive,Extremely  Attractive,mirrored,CFD_LF_224_176_N.png,FOREHEAD,4,60.27777778,2.9767,0.012962963,-0.4,1,0,0,NextBu,0.764360981,82,0,82,0,1,Can you ask this? ,M,36,White,2022-07-28_15h44.46.337,FaceAttractiveness,2022.2.2,Win32,59.74429442,62d28f109e5c437c89dac211,62e28ca91edcb69c59d3a195,62e2a12ef1fa5a067e6b0849,,,,,,,,
,,,,,293.7316,Extremely Unattractive,Extremely  Attractive,mirrored,CFD_BM_234_172_N.png,LCHEEK,4,56.11111111,2.2265,0.025,-0.421296296,1,0,0,NextBu,0.755004052,83,0,83,0,1,Can you ask this? ,M,36,White,2022-07-28_15h44.46.337,FaceAttractiveness,2022.2.2,Win32,59.74429442,62d28f109e5c437c89dac211,62e28ca91edcb69c59d3a195,62e2a12ef1fa5a067e6b0849,,,,,,,,
,,,,,297.1986,Extremely Unattractive,Extremely  Attractive,mirrored,CFD_BM_213_134_N.png,LCHEEK,4,26.66666667,1.5552,0.025,-0.37962963,1,0,0,NextBu,0.751545639,84,0,84,0,1,Can you ask this? ,M,36,White,2022-07-28_15h44.46.337,FaceAttractiveness,2022.2.2,Win32,59.74429442,62d28f109e5c437c89dac211,62e28ca91edcb69c59d3a195,62e2a12ef1fa5a067e6b0849,,,,,,,,
,,,,,299.9985,Extremely Unattractive,Extremely  Attractive,mirrored,CFD_BF_224_002_N.png,LCHEEK,4,17.22222222,1.7544,0.084259259,-0.408333333,1,0,0,NextBu,0.65493198,85,0,85,0,1,Can you ask this? ,M,36,White,2022-07-28_15h44.46.337,FaceAttractiveness,2022.2.2,Win32,59.74429442,62d28f109e5c437c89dac211,62e28ca91edcb69c59d3a195,62e2a12ef1fa5a067e6b0849,,,,,,,,
,,,,,302.7985,Extremely Unattractive,Extremely  Attractive,mirrored,CFD_BF_214_308_N.png,FOREHEAD,4,53.7037037,3.8804,0.066666667,-0.422222222,1,0,0,NextBu,0.509447741,86,0,86,0,1,Can you ask this? ,M,36,White,2022-07-28_15h44.46.337,FaceAttractiveness,2022.2.2,Win32,59.74429442,62d28f109e5c437c89dac211,62e28ca91edcb69c59d3a195,62e2a12ef1fa5a067e6b0849,,,,,,,,
,,,,,307.6151,Extremely Unattractive,Extremely  Attractive,mirrored,CFD_AM_233_236_N.png,LCHEEK,4,33.51851852,3.2209,0.012037037,-0.421296296,1,0,0,NextBu,0.614985492,87,0,87,0,1,Can you ask this? ,M,36,White,2022-07-28_15h44.46.337,FaceAttractiveness,2022.2.2,Win32,59.74429442,62d28f109e5c437c89dac211,62e28ca91edcb69c59d3a195,62e2a12ef1fa5a067e6b0849,,,,,,,,
,,,,,311.9318,Extremely Unattractive,Extremely  Attractive,mirrored,CFD_AF_245_143_N.png,FOREHEAD,4,52.22222222,2.2742,0.012037037,-0.37962963,1,0,0,NextBu,0.601582887,88,0,88,0,1,Can you ask this? ,M,36,White,2022-07-28_15h44.46.337,FaceAttractiveness,2022.2.2,Win32,59.74429442,62d28f109e5c437c89dac211,62e28ca91edcb69c59d3a195,62e2a12ef1fa5a067e6b0849,,,,,,,,
,,,,,315.1653,Extremely Unattractive,Extremely  Attractive,mirrored,CFD_AF_237_223_N.png,LIP,4,40.18518519,2.0807,0.013888889,-0.410185185,1,0,0,NextBu,0.777803987,89,0,89,0,1,Can you ask this? ,M,36,White,2022-07-28_15h44.46.337,FaceAttractiveness,2022.2.2,Win32,59.74429442,62d28f109e5c437c89dac211,62e28ca91edcb69c59d3a195,62e2a12ef1fa5a067e6b0849,,,,,,,,
,,,,,318.4817,Extremely Unattractive,Extremely  Attractive,mirrored,CFD_AF_231_357_N.png,RCHEEK,4,7.962962963,1.9397,-0.012962963,-0.415740741,1,0,0,NextBu,0.876327424,90,0,90,0,1,Can you ask this? ,M,36,White,2022-07-28_15h44.46.337,FaceAttractiveness,2022.2.2,Win32,59.74429442,62d28f109e5c437c89dac211,62e28ca91edcb69c59d3a195,62e2a12ef1fa5a067e6b0849,,,,,,,,
,,,,,321.7151,Extremely Unattractive,Extremely  Attractive,mirrored,136_M_M_N_A.png,NASALTIP,4,39.81481481,4.3056,-0.005555556,-0.4,1,0,0,NextBu,0.69290788,91,0,91,0,1,Can you ask this? ,M,36,White,2022-07-28_15h44.46.337,FaceAttractiveness,2022.2.2,Win32,59.74429442,62d28f109e5c437c89dac211,62e28ca91edcb69c59d3a195,62e2a12ef1fa5a067e6b0849,,,,,,,,
,,,,,327.0151,Extremely Unattractive,Extremely  Attractive,mirrored,087_M_M_N_A.png,FOREHEAD,4,59.72222222,1.5563,0.005555556,-0.425,1,0,0,NextBu,0.725061465,92,0,92,0,1,Can you ask this? ,M,36,White,2022-07-28_15h44.46.337,FaceAttractiveness,2022.2.2,Win32,59.74429442,62d28f109e5c437c89dac211,62e28ca91edcb69c59d3a195,62e2a12ef1fa5a067e6b0849,,,,,,,,
,,,,,329.7151,Extremely Unattractive,Extremely  Attractive,mirrored,035_M_F_N_A.png,RCHEEK,4,23.88888889,2.0594,-0.025925926,-0.405555556,1,0,0,NextBu,0.931906271,93,0,93,0,1,Can you ask this? ,M,36,White,2022-07-28_15h44.46.337,FaceAttractiveness,2022.2.2,Win32,59.74429442,62d28f109e5c437c89dac211,62e28ca91edcb69c59d3a195,62e2a12ef1fa5a067e6b0849,,,,,,,,
,,,,,333.1487,Extremely Unattractive,Extremely  Attractive,mirrored,006_M_F_N_A.png,RCHEEK,4,38.05555556,3.255,0.030555556,-0.387037037,1,0,0,NextBu,0.720061592,94,0,94,0,1,Can you ask this? ,M,36,White,2022-07-28_15h44.46.337,FaceAttractiveness,2022.2.2,Win32,59.74429442,62d28f109e5c437c89dac211,62e28ca91edcb69c59d3a195,62e2a12ef1fa5a067e6b0849,,,,,,,,
,,,,,,,,,,,,,,,,,,,,,,,,,,Can you ask this? ,M,36,White,2022-07-28_15h44.46.337,FaceAttractiveness,2022.2.2,Win32,59.74429442,62d28f109e5c437c89dac211,62e28ca91edcb69c59d3a195,62e2a12ef1fa5a067e6b0849,0,0,0,0,1,Attractiveness,Extremely  Attractive,Extremely Unattractive
,,,,,,,,,,,,,,,,,,,,,,,,,,Can you ask this? ,M,36,White,2022-07-28_15h44.46.337,FaceAttractiveness,2022.2.2,Win32,59.74429442,62d28f109e5c437c89dac211,62e28ca91edcb69c59d3a195,62e2a12ef1fa5a067e6b0849,,,,,,,,
