mouse.x,mouse.y,mouse.leftButton,mouse.midButton,mouse.rightButton,onsetTime,leftText,rightText,sliderDirection,face,lesion,block,slider.response,slider.rt,mouse_5.x,mouse_5.y,mouse_5.leftButton,mouse_5.midButton,mouse_5.rightButton,mouse_5.clicked_name,ITI,originalFaceTrials.thisRepN,originalFaceTrials.thisTrialN,originalFaceTrials.thisN,originalFaceTrials.thisIndex,originalFaceTrials.ran,Name,Gender,Age,Ethnicity,date,expName,psychopyVersion,OS,frameRate,participant,study_id,session,RatingBlockOrder.thisRepN,RatingBlockOrder.thisTrialN,RatingBlockOrder.thisN,RatingBlockOrder.thisIndex,RatingBlockOrder.ran,Task,LeftLabel,RightLabel
0.096115451,-0.231582755,1,0,0,1.6675,Extremely Unattractive,Extremely  Attractive,mirrored,CFD_WM_212_097_N.png,LIP,0,40.0495515,1.1185,-0.033807147,-0.364525463,1,0,0,NextBu,0.840564695,0,0,0,0,1,,,,,2022-07-28_10h29.45.651,FaceAttractiveness,2022.2.2,MacIntel,60.0024001,60c6b3ea487c6f366b92e5e3,62dfe6a3e28b448cf3e9d0db,0mkbetpw4h7,,,,,,,,
,,,,,4.1483,Extremely Unattractive,Extremely  Attractive,mirrored,CFD_WF_250_167_N.png,FOREHEAD,0,84.88172743,1.1063,0.082139757,-0.362228733,1,0,0,NextBu,0.812462551,1,0,1,0,1,,,,,2022-07-28_10h29.45.651,FaceAttractiveness,2022.2.2,MacIntel,60.0024001,60c6b3ea487c6f366b92e5e3,62dfe6a3e28b448cf3e9d0db,0mkbetpw4h7,,,,,,,,
,,,,,6.3804,Extremely Unattractive,Extremely  Attractive,mirrored,CFD_WF_200_099_N.png,RCHEEK,0,34.55041956,0.7493,-0.064840133,-0.402481192,1,0,0,NextBu,0.549983451,2,0,2,0,1,,,,,2022-07-28_10h29.45.651,FaceAttractiveness,2022.2.2,MacIntel,60.0024001,60c6b3ea487c6f366b92e5e3,62dfe6a3e28b448cf3e9d0db,0mkbetpw4h7,,,,,,,,
,,,,,7.9138,Extremely Unattractive,Extremely  Attractive,mirrored,CFD_WF_002_004_N.png,LIP,0,38.99884259,0.6749,-0.049678096,-0.385608362,1,0,0,NextBu,0.963488485,3,0,3,0,1,,,,,2022-07-28_10h29.45.651,FaceAttractiveness,2022.2.2,MacIntel,60.0024001,60c6b3ea487c6f366b92e5e3,62dfe6a3e28b448cf3e9d0db,0mkbetpw4h7,,,,,,,,
,,,,,9.7148,Extremely Unattractive,Extremely  Attractive,mirrored,CFD_LM_203_026_N.png,NASALTIP,0,40.23546007,0.6407,-0.021285446,-0.402379919,1,0,0,NextBu,0.787428344,4,0,4,0,1,,,,,2022-07-28_10h29.45.651,FaceAttractiveness,2022.2.2,MacIntel,60.0024001,60c6b3ea487c6f366b92e5e3,62dfe6a3e28b448cf3e9d0db,0mkbetpw4h7,,,,,,,,
,,,,,11.3147,Extremely Unattractive,Extremely  Attractive,mirrored,CFD_LM_201_057_N.png,NASALTIP,0,42.37123843,0.6573,-0.047113715,-0.404908131,1,0,0,NextBu,0.813874952,5,0,5,0,1,,,,,2022-07-28_10h29.45.651,FaceAttractiveness,2022.2.2,MacIntel,60.0024001,60c6b3ea487c6f366b92e5e3,62dfe6a3e28b448cf3e9d0db,0mkbetpw4h7,,,,,,,,
,,,,,12.9638,Extremely Unattractive,Extremely  Attractive,mirrored,CFD_LF_224_176_N.png,FOREHEAD,0,42.99189815,0.9266,-0.025701678,-0.378873698,1,0,0,NextBu,0.890517232,6,0,6,0,1,,,,,2022-07-28_10h29.45.651,FaceAttractiveness,2022.2.2,MacIntel,60.0024001,60c6b3ea487c6f366b92e5e3,62dfe6a3e28b448cf3e9d0db,0mkbetpw4h7,,,,,,,,
,,,,,14.9483,Extremely Unattractive,Extremely  Attractive,mirrored,CFD_BM_234_172_N.png,FOREHEAD,0,44.91934317,0.5874,-0.01646412,-0.376768663,1,0,0,NextBu,0.657306327,7,0,7,0,1,,,,,2022-07-28_10h29.45.651,FaceAttractiveness,2022.2.2,MacIntel,60.0024001,60c6b3ea487c6f366b92e5e3,62dfe6a3e28b448cf3e9d0db,0mkbetpw4h7,,,,,,,,
,,,,,16.3639,Extremely Unattractive,Extremely  Attractive,mirrored,CFD_BM_213_134_N.png,FOREHEAD,0,32.65769676,0.7817,-0.038480179,-0.363096788,1,0,0,NextBu,0.747352297,8,0,8,0,1,,,,,2022-07-28_10h29.45.651,FaceAttractiveness,2022.2.2,MacIntel,60.0024001,60c6b3ea487c6f366b92e5e3,62dfe6a3e28b448cf3e9d0db,0mkbetpw4h7,,,,,,,,
,,,,,18.1141,Extremely Unattractive,Extremely  Attractive,mirrored,CFD_BF_224_002_N.png,FOREHEAD,0,43.28378183,0.5953,-0.034548611,-0.359255642,1,0,0,NextBu,0.803677542,9,0,9,0,1,,,,,2022-07-28_10h29.45.651,FaceAttractiveness,2022.2.2,MacIntel,60.0024001,60c6b3ea487c6f366b92e5e3,62dfe6a3e28b448cf3e9d0db,0mkbetpw4h7,,,,,,,,
,,,,,19.747,Extremely Unattractive,Extremely  Attractive,mirrored,CFD_BF_214_308_N.png,LIP,0,41.22540509,0.46,-0.036574074,-0.361527054,1,0,0,NextBu,0.597987523,10,0,10,0,1,,,,,2022-07-28_10h29.45.651,FaceAttractiveness,2022.2.2,MacIntel,60.0024001,60c6b3ea487c6f366b92e5e3,62dfe6a3e28b448cf3e9d0db,0mkbetpw4h7,,,,,,,,
,,,,,21.013,Extremely Unattractive,Extremely  Attractive,mirrored,CFD_AM_233_236_N.png,NASALTIP,0,43.46137153,0.7242,-0.022884115,-0.396100984,1,0,0,NextBu,0.532245143,11,0,11,0,1,,,,,2022-07-28_10h29.45.651,FaceAttractiveness,2022.2.2,MacIntel,60.0024001,60c6b3ea487c6f366b92e5e3,62dfe6a3e28b448cf3e9d0db,0mkbetpw4h7,,,,,,,,
,,,,,22.4309,Extremely Unattractive,Extremely  Attractive,mirrored,CFD_AF_245_143_N.png,FOREHEAD,0,41.04781539,0.6309,-0.042469618,-0.368923611,1,0,0,NextBu,0.956646192,12,0,12,0,1,,,,,2022-07-28_10h29.45.651,FaceAttractiveness,2022.2.2,MacIntel,60.0024001,60c6b3ea487c6f366b92e5e3,62dfe6a3e28b448cf3e9d0db,0mkbetpw4h7,,,,,,,,
,,,,,24.1801,Extremely Unattractive,Extremely  Attractive,mirrored,CFD_AF_237_223_N.png,LCHEEK,0,45.38592303,0.9787,-0.008662471,-0.400679977,1,0,0,NextBu,0.568335763,13,0,13,0,1,,,,,2022-07-28_10h29.45.651,FaceAttractiveness,2022.2.2,MacIntel,60.0024001,60c6b3ea487c6f366b92e5e3,62dfe6a3e28b448cf3e9d0db,0mkbetpw4h7,,,,,,,,
,,,,,25.9138,Extremely Unattractive,Extremely  Attractive,mirrored,CFD_AF_231_357_N.png,LCHEEK,0,40.74544271,0.8072,-0.016814959,-0.418869358,1,0,0,NextBu,0.843784957,14,0,14,0,1,,,,,2022-07-28_10h29.45.651,FaceAttractiveness,2022.2.2,MacIntel,60.0024001,60c6b3ea487c6f366b92e5e3,62dfe6a3e28b448cf3e9d0db,0mkbetpw4h7,,,,,,,,
,,,,,27.814,Extremely Unattractive,Extremely  Attractive,mirrored,136_M_M_N_A.png,LIP,0,39.47952836,0.6707,-0.06422526,-0.369759115,1,0,0,NextBu,0.849718519,15,0,15,0,1,,,,,2022-07-28_10h29.45.651,FaceAttractiveness,2022.2.2,MacIntel,60.0024001,60c6b3ea487c6f366b92e5e3,62dfe6a3e28b448cf3e9d0db,0mkbetpw4h7,,,,,,,,
,,,,,29.5138,Extremely Unattractive,Extremely  Attractive,mirrored,087_M_M_N_A.png,LIP,0,43.44762731,0.5566,-0.037018953,-0.377144821,1,0,0,NextBu,0.700379872,16,0,16,0,1,,,,,2022-07-28_10h29.45.651,FaceAttractiveness,2022.2.2,MacIntel,60.0024001,60c6b3ea487c6f366b92e5e3,62dfe6a3e28b448cf3e9d0db,0mkbetpw4h7,,,,,,,,
,,,,,31.0137,Extremely Unattractive,Extremely  Attractive,mirrored,035_M_F_N_A.png,FOREHEAD,0,43.29029225,0.5235,-0.051963976,-0.395033999,1,0,0,NextBu,0.738873344,17,0,17,0,1,,,,,2022-07-28_10h29.45.651,FaceAttractiveness,2022.2.2,MacIntel,60.0024001,60c6b3ea487c6f366b92e5e3,62dfe6a3e28b448cf3e9d0db,0mkbetpw4h7,,,,,,,,
,,,,,32.4652,Extremely Unattractive,Extremely  Attractive,mirrored,006_M_F_N_A.png,FOREHEAD,0,45.77980324,0.6597,-0.035839844,-0.399392361,1,0,0,NextBu,0.582546545,18,0,18,0,1,,,,,2022-07-28_10h29.45.651,FaceAttractiveness,2022.2.2,MacIntel,60.0024001,60c6b3ea487c6f366b92e5e3,62dfe6a3e28b448cf3e9d0db,0mkbetpw4h7,,,,,,,,
,,,,,33.881,Extremely Unattractive,Extremely  Attractive,mirrored,CFD_WM_212_097_N.png,LCHEEK,1,42.26598669,0.8072,-0.005099826,-0.401244213,1,0,0,NextBu,0.905566432,19,0,19,0,1,,,,,2022-07-28_10h29.45.651,FaceAttractiveness,2022.2.2,MacIntel,60.0024001,60c6b3ea487c6f366b92e5e3,62dfe6a3e28b448cf3e9d0db,0mkbetpw4h7,,,,,,,,
,,,,,35.7811,Extremely Unattractive,Extremely  Attractive,mirrored,CFD_WF_250_167_N.png,LCHEEK,1,47.21752025,0.5152,-0.039662905,-0.387199797,1,0,0,NextBu,0.973081773,20,0,20,0,1,,,,,2022-07-28_10h29.45.651,FaceAttractiveness,2022.2.2,MacIntel,60.0024001,60c6b3ea487c6f366b92e5e3,62dfe6a3e28b448cf3e9d0db,0mkbetpw4h7,,,,,,,,
,,,,,37.5135,Extremely Unattractive,Extremely  Attractive,mirrored,CFD_WF_200_099_N.png,NASALTIP,1,39.3254485,0.7454,-0.064091435,-0.406137876,1,0,0,NextBu,0.95243626,21,0,21,0,1,,,,,2022-07-28_10h29.45.651,FaceAttractiveness,2022.2.2,MacIntel,60.0024001,60c6b3ea487c6f366b92e5e3,62dfe6a3e28b448cf3e9d0db,0mkbetpw4h7,,,,,,,,
,,,,,39.3963,Extremely Unattractive,Extremely  Attractive,mirrored,CFD_WF_002_004_N.png,LCHEEK,1,39.09613715,0.6428,-0.040498409,-0.377267795,1,0,0,NextBu,0.841184838,22,0,22,0,1,,,,,2022-07-28_10h29.45.651,FaceAttractiveness,2022.2.2,MacIntel,60.0024001,60c6b3ea487c6f366b92e5e3,62dfe6a3e28b448cf3e9d0db,0mkbetpw4h7,,,,,,,,
,,,,,41.0634,Extremely Unattractive,Extremely  Attractive,mirrored,CFD_LM_203_026_N.png,RCHEEK,1,42.72569444,0.7325,-0.058098235,-0.39558015,1,0,0,NextBu,0.867735324,23,0,23,0,1,,,,,2022-07-28_10h29.45.651,FaceAttractiveness,2022.2.2,MacIntel,60.0024001,60c6b3ea487c6f366b92e5e3,62dfe6a3e28b448cf3e9d0db,0mkbetpw4h7,,,,,,,,
,,,,,42.8139,Extremely Unattractive,Extremely  Attractive,mirrored,CFD_LM_201_057_N.png,RCHEEK,1,41.65075231,0.6569,-0.022674334,-0.372999855,1,0,0,NextBu,0.554746095,24,0,24,0,1,,,,,2022-07-28_10h29.45.651,FaceAttractiveness,2022.2.2,MacIntel,60.0024001,60c6b3ea487c6f366b92e5e3,62dfe6a3e28b448cf3e9d0db,0mkbetpw4h7,,,,,,,,
,,,,,44.1974,Extremely Unattractive,Extremely  Attractive,mirrored,CFD_LF_224_176_N.png,LCHEEK,1,44.74934896,0.7241,-0.029249855,-0.384657118,1,0,0,NextBu,0.773786794,25,0,25,0,1,,,,,2022-07-28_10h29.45.651,FaceAttractiveness,2022.2.2,MacIntel,60.0024001,60c6b3ea487c6f366b92e5e3,62dfe6a3e28b448cf3e9d0db,0mkbetpw4h7,,,,,,,,
,,,,,45.8652,Extremely Unattractive,Extremely  Attractive,mirrored,CFD_BM_234_172_N.png,NASALTIP,1,44.80794271,0.6557,-0.026526331,-0.3963614,1,0,0,NextBu,0.699976859,26,0,26,0,1,,,,,2022-07-28_10h29.45.651,FaceAttractiveness,2022.2.2,MacIntel,60.0024001,60c6b3ea487c6f366b92e5e3,62dfe6a3e28b448cf3e9d0db,0mkbetpw4h7,,,,,,,,
,,,,,47.3811,Extremely Unattractive,Extremely  Attractive,mirrored,CFD_BM_213_134_N.png,RCHEEK,1,44.85026042,0.6602,-0.039847367,-0.39245515,1,0,0,NextBu,0.590588615,27,0,27,0,1,,,,,2022-07-28_10h29.45.651,FaceAttractiveness,2022.2.2,MacIntel,60.0024001,60c6b3ea487c6f366b92e5e3,62dfe6a3e28b448cf3e9d0db,0mkbetpw4h7,,,,,,,,
,,,,,48.7806,Extremely Unattractive,Extremely  Attractive,mirrored,CFD_BF_224_002_N.png,RCHEEK,1,45.21918403,0.6423,-0.030685764,-0.377484809,1,0,0,NextBu,0.965139547,28,0,28,0,1,,,,,2022-07-28_10h29.45.651,FaceAttractiveness,2022.2.2,MacIntel,60.0024001,60c6b3ea487c6f366b92e5e3,62dfe6a3e28b448cf3e9d0db,0mkbetpw4h7,,,,,,,,
,,,,,50.5967,Extremely Unattractive,Extremely  Attractive,mirrored,CFD_BF_214_308_N.png,RCHEEK,1,43.87731481,0.6249,-0.022265625,-0.382244647,1,0,0,NextBu,0.705859879,29,0,29,0,1,,,,,2022-07-28_10h29.45.651,FaceAttractiveness,2022.2.2,MacIntel,60.0024001,60c6b3ea487c6f366b92e5e3,62dfe6a3e28b448cf3e9d0db,0mkbetpw4h7,,,,,,,,
,,,,,52.0813,Extremely Unattractive,Extremely  Attractive,mirrored,CFD_AM_233_236_N.png,RCHEEK,1,38.76916956,0.7243,-0.036136429,-0.39275897,1,0,0,NextBu,0.50570129,30,0,30,0,1,,,,,2022-07-28_10h29.45.651,FaceAttractiveness,2022.2.2,MacIntel,60.0024001,60c6b3ea487c6f366b92e5e3,62dfe6a3e28b448cf3e9d0db,0mkbetpw4h7,,,,,,,,
,,,,,53.4637,Extremely Unattractive,Extremely  Attractive,mirrored,CFD_AF_245_143_N.png,RCHEEK,1,52.04246238,0.8578,-0.001793981,-0.388787616,1,0,0,NextBu,0.562827915,31,0,31,0,1,,,,,2022-07-28_10h29.45.651,FaceAttractiveness,2022.2.2,MacIntel,60.0024001,60c6b3ea487c6f366b92e5e3,62dfe6a3e28b448cf3e9d0db,0mkbetpw4h7,,,,,,,,
,,,,,55.0975,Extremely Unattractive,Extremely  Attractive,mirrored,CFD_AF_237_223_N.png,NASALTIP,1,51.93395544,0.6571,-0.028580729,-0.393572772,1,0,0,NextBu,0.537612211,32,0,32,0,1,,,,,2022-07-28_10h29.45.651,FaceAttractiveness,2022.2.2,MacIntel,60.0024001,60c6b3ea487c6f366b92e5e3,62dfe6a3e28b448cf3e9d0db,0mkbetpw4h7,,,,,,,,
,,,,,56.4638,Extremely Unattractive,Extremely  Attractive,mirrored,CFD_AF_231_357_N.png,FOREHEAD,1,46.49377894,0.5915,-0.043572772,-0.372171586,1,0,0,NextBu,0.886333225,33,0,33,0,1,,,,,2022-07-28_10h29.45.651,FaceAttractiveness,2022.2.2,MacIntel,60.0024001,60c6b3ea487c6f366b92e5e3,62dfe6a3e28b448cf3e9d0db,0mkbetpw4h7,,,,,,,,
,,,,,58.097,Extremely Unattractive,Extremely  Attractive,mirrored,136_M_M_N_A.png,FOREHEAD,1,45.05099826,0.9902,-0.043934462,-0.370381221,1,0,0,NextBu,0.816676048,34,0,34,0,1,,,,,2022-07-28_10h29.45.651,FaceAttractiveness,2022.2.2,MacIntel,60.0024001,60c6b3ea487c6f366b92e5e3,62dfe6a3e28b448cf3e9d0db,0mkbetpw4h7,,,,,,,,
,,,,,60.0641,Extremely Unattractive,Extremely  Attractive,mirrored,087_M_M_N_A.png,FOREHEAD,1,45.10163484,0.4233,-0.044361256,-0.383427373,1,0,0,NextBu,0.565575139,35,0,35,0,1,,,,,2022-07-28_10h29.45.651,FaceAttractiveness,2022.2.2,MacIntel,60.0024001,60c6b3ea487c6f366b92e5e3,62dfe6a3e28b448cf3e9d0db,0mkbetpw4h7,,,,,,,,
,,,,,61.6301,Extremely Unattractive,Extremely  Attractive,mirrored,035_M_F_N_A.png,LCHEEK,1,47.31553819,0.5617,-0.024450231,-0.380595341,1,0,0,NextBu,0.896090584,36,0,36,0,1,,,,,2022-07-28_10h29.45.651,FaceAttractiveness,2022.2.2,MacIntel,60.0024001,60c6b3ea487c6f366b92e5e3,62dfe6a3e28b448cf3e9d0db,0mkbetpw4h7,,,,,,,,
,,,,,63.2303,Extremely Unattractive,Extremely  Attractive,mirrored,006_M_F_N_A.png,RCHEEK,1,48.10329861,0.5159,-0.032921007,-0.37650463,1,0,0,NextBu,0.932632817,37,0,37,0,1,,,,,2022-07-28_10h29.45.651,FaceAttractiveness,2022.2.2,MacIntel,60.0024001,60c6b3ea487c6f366b92e5e3,62dfe6a3e28b448cf3e9d0db,0mkbetpw4h7,,,,,,,,
,,,,,64.8473,Extremely Unattractive,Extremely  Attractive,mirrored,CFD_WM_212_097_N.png,NASALTIP,2,48.55938947,0.5078,-0.03723235,-0.40754485,1,0,0,NextBu,0.939162133,38,0,38,0,1,,,,,2022-07-28_10h29.45.651,FaceAttractiveness,2022.2.2,MacIntel,60.0024001,60c6b3ea487c6f366b92e5e3,62dfe6a3e28b448cf3e9d0db,0mkbetpw4h7,,,,,,,,
,,,,,66.482,Extremely Unattractive,Extremely  Attractive,mirrored,CFD_WF_250_167_N.png,RCHEEK,2,47.57052951,0.5599,-0.021752025,-0.375,1,0,0,NextBu,0.671171273,39,0,39,0,1,,,,,2022-07-28_10h29.45.651,FaceAttractiveness,2022.2.2,MacIntel,60.0024001,60c6b3ea487c6f366b92e5e3,62dfe6a3e28b448cf3e9d0db,0mkbetpw4h7,,,,,,,,
,,,,,67.8976,Extremely Unattractive,Extremely  Attractive,mirrored,CFD_WF_200_099_N.png,LCHEEK,2,48.37673611,0.6241,-0.022214988,-0.392346644,1,0,0,NextBu,0.595095964,40,0,40,0,1,,,,,2022-07-28_10h29.45.651,FaceAttractiveness,2022.2.2,MacIntel,60.0024001,60c6b3ea487c6f366b92e5e3,62dfe6a3e28b448cf3e9d0db,0mkbetpw4h7,,,,,,,,
,,,,,69.4639,Extremely Unattractive,Extremely  Attractive,mirrored,CFD_WF_002_004_N.png,NASALTIP,2,48.45305266,0.6955,-0.017827691,-0.371582031,1,0,0,NextBu,0.576392248,41,0,41,0,1,,,,,2022-07-28_10h29.45.651,FaceAttractiveness,2022.2.2,MacIntel,60.0024001,60c6b3ea487c6f366b92e5e3,62dfe6a3e28b448cf3e9d0db,0mkbetpw4h7,,,,,,,,
,,,,,70.898,Extremely Unattractive,Extremely  Attractive,mirrored,CFD_LM_203_026_N.png,LCHEEK,2,48.0895544,0.7565,-0.029036458,-0.404054543,1,0,0,NextBu,0.85780225,42,0,42,0,1,,,,,2022-07-28_10h29.45.651,FaceAttractiveness,2022.2.2,MacIntel,60.0024001,60c6b3ea487c6f366b92e5e3,62dfe6a3e28b448cf3e9d0db,0mkbetpw4h7,,,,,,,,
,,,,,72.8307,Extremely Unattractive,Extremely  Attractive,mirrored,CFD_LM_201_057_N.png,FOREHEAD,2,48.96737558,0.7303,-0.029803241,-0.410192419,1,0,0,NextBu,0.727244073,43,0,43,0,1,,,,,2022-07-28_10h29.45.651,FaceAttractiveness,2022.2.2,MacIntel,60.0024001,60c6b3ea487c6f366b92e5e3,62dfe6a3e28b448cf3e9d0db,0mkbetpw4h7,,,,,,,,
,,,,,74.4475,Extremely Unattractive,Extremely  Attractive,mirrored,CFD_LF_224_176_N.png,NASALTIP,2,48.24146412,0.7412,-0.032103588,-0.387178096,1,0,0,NextBu,0.765864867,44,0,44,0,1,,,,,2022-07-28_10h29.45.651,FaceAttractiveness,2022.2.2,MacIntel,60.0024001,60c6b3ea487c6f366b92e5e3,62dfe6a3e28b448cf3e9d0db,0mkbetpw4h7,,,,,,,,
,,,,,76.1308,Extremely Unattractive,Extremely  Attractive,mirrored,CFD_BM_234_172_N.png,RCHEEK,2,43.71708623,0.6765,-0.038859954,-0.416221788,1,0,0,NextBu,0.744971067,45,0,45,0,1,,,,,2022-07-28_10h29.45.651,FaceAttractiveness,2022.2.2,MacIntel,60.0024001,60c6b3ea487c6f366b92e5e3,62dfe6a3e28b448cf3e9d0db,0mkbetpw4h7,,,,,,,,
,,,,,77.7475,Extremely Unattractive,Extremely  Attractive,mirrored,CFD_BM_213_134_N.png,NASALTIP,2,45.57761863,0.6077,-0.0247432,-0.381561053,1,0,0,NextBu,0.64222984,46,0,46,0,1,,,,,2022-07-28_10h29.45.651,FaceAttractiveness,2022.2.2,MacIntel,60.0024001,60c6b3ea487c6f366b92e5e3,62dfe6a3e28b448cf3e9d0db,0mkbetpw4h7,,,,,,,,
,,,,,79.1473,Extremely Unattractive,Extremely  Attractive,mirrored,CFD_BF_224_002_N.png,NASALTIP,2,46.2749566,0.7241,-0.038849103,-0.365429687,1,0,0,NextBu,0.749749797,47,0,47,0,1,,,,,2022-07-28_10h29.45.651,FaceAttractiveness,2022.2.2,MacIntel,60.0024001,60c6b3ea487c6f366b92e5e3,62dfe6a3e28b448cf3e9d0db,0mkbetpw4h7,,,,,,,,
,,,,,80.7809,Extremely Unattractive,Extremely  Attractive,mirrored,CFD_BF_214_308_N.png,FOREHEAD,2,46.71730324,0.5409,-0.024301939,-0.380146846,1,0,0,NextBu,0.828639306,48,0,48,0,1,,,,,2022-07-28_10h29.45.651,FaceAttractiveness,2022.2.2,MacIntel,60.0024001,60c6b3ea487c6f366b92e5e3,62dfe6a3e28b448cf3e9d0db,0mkbetpw4h7,,,,,,,,
,,,,,82.3143,Extremely Unattractive,Extremely  Attractive,mirrored,CFD_AM_233_236_N.png,LIP,2,48.06134259,0.5078,-0.021748409,-0.375470197,1,0,0,NextBu,0.558002281,49,0,49,0,1,,,,,2022-07-28_10h29.45.651,FaceAttractiveness,2022.2.2,MacIntel,60.0024001,60c6b3ea487c6f366b92e5e3,62dfe6a3e28b448cf3e9d0db,0mkbetpw4h7,,,,,,,,
,,,,,83.5637,Extremely Unattractive,Extremely  Attractive,mirrored,CFD_AF_245_143_N.png,LIP,2,48.51309317,0.6987,-0.012926794,-0.392328559,1,0,0,NextBu,0.965322516,50,0,50,0,1,,,,,2022-07-28_10h29.45.651,FaceAttractiveness,2022.2.2,MacIntel,60.0024001,60c6b3ea487c6f366b92e5e3,62dfe6a3e28b448cf3e9d0db,0mkbetpw4h7,,,,,,,,
,,,,,85.3971,Extremely Unattractive,Extremely  Attractive,mirrored,CFD_AF_237_223_N.png,LIP,2,46.05215567,0.4812,-0.043359375,-0.396571181,1,0,0,NextBu,0.902638748,51,0,51,0,1,,,,,2022-07-28_10h29.45.651,FaceAttractiveness,2022.2.2,MacIntel,60.0024001,60c6b3ea487c6f366b92e5e3,62dfe6a3e28b448cf3e9d0db,0mkbetpw4h7,,,,,,,,
,,,,,86.9974,Extremely Unattractive,Extremely  Attractive,mirrored,CFD_AF_231_357_N.png,NASALTIP,2,46.93359375,0.5746,-0.04469401,-0.390136719,1,0,0,NextBu,0.847714995,52,0,52,0,1,,,,,2022-07-28_10h29.45.651,FaceAttractiveness,2022.2.2,MacIntel,60.0024001,60c6b3ea487c6f366b92e5e3,62dfe6a3e28b448cf3e9d0db,0mkbetpw4h7,,,,,,,,
,,,,,88.5972,Extremely Unattractive,Extremely  Attractive,mirrored,136_M_M_N_A.png,NASALTIP,2,46.67896412,0.5724,-0.021947338,-0.401880787,1,0,0,NextBu,0.58179601,53,0,53,0,1,,,,,2022-07-28_10h29.45.651,FaceAttractiveness,2022.2.2,MacIntel,60.0024001,60c6b3ea487c6f366b92e5e3,62dfe6a3e28b448cf3e9d0db,0mkbetpw4h7,,,,,,,,
,,,,,89.9304,Extremely Unattractive,Extremely  Attractive,mirrored,087_M_M_N_A.png,NASALTIP,2,48.73842593,1.1419,-0.041634115,-0.388798466,1,0,0,NextBu,0.907073277,54,0,54,0,1,,,,,2022-07-28_10h29.45.651,FaceAttractiveness,2022.2.2,MacIntel,60.0024001,60c6b3ea487c6f366b92e5e3,62dfe6a3e28b448cf3e9d0db,0mkbetpw4h7,,,,,,,,
,,,,,92.4308,Extremely Unattractive,Extremely  Attractive,mirrored,035_M_F_N_A.png,RCHEEK,2,45.59714988,0.6079,-0.050730613,-0.383239294,1,0,0,NextBu,0.611909911,55,0,55,0,1,,,,,2022-07-28_10h29.45.651,FaceAttractiveness,2022.2.2,MacIntel,60.0024001,60c6b3ea487c6f366b92e5e3,62dfe6a3e28b448cf3e9d0db,0mkbetpw4h7,,,,,,,,
,,,,,93.8147,Extremely Unattractive,Extremely  Attractive,mirrored,006_M_F_N_A.png,NASALTIP,2,45.52734375,0.6565,-0.04448423,-0.392028356,1,0,0,NextBu,0.763814594,56,0,56,0,1,,,,,2022-07-28_10h29.45.651,FaceAttractiveness,2022.2.2,MacIntel,60.0024001,60c6b3ea487c6f366b92e5e3,62dfe6a3e28b448cf3e9d0db,0mkbetpw4h7,,,,,,,,
,,,,,95.3971,Extremely Unattractive,Extremely  Attractive,mirrored,CFD_WM_212_097_N.png,FOREHEAD,3,45.27958623,0.4447,-0.034577546,-0.381448929,1,0,0,NextBu,0.862298908,57,0,57,0,1,,,,,2022-07-28_10h29.45.651,FaceAttractiveness,2022.2.2,MacIntel,60.0024001,60c6b3ea487c6f366b92e5e3,62dfe6a3e28b448cf3e9d0db,0mkbetpw4h7,,,,,,,,
,,,,,96.8817,Extremely Unattractive,Extremely  Attractive,mirrored,CFD_WF_250_167_N.png,LIP,3,46.50824653,1.0073,-0.019643374,-0.400141059,1,0,0,NextBu,0.955989769,58,0,58,0,1,,,,,2022-07-28_10h29.45.651,FaceAttractiveness,2022.2.2,MacIntel,60.0024001,60c6b3ea487c6f366b92e5e3,62dfe6a3e28b448cf3e9d0db,0mkbetpw4h7,,,,,,,,
,,,,,98.9979,Extremely Unattractive,Extremely  Attractive,mirrored,CFD_WF_200_099_N.png,FOREHEAD,3,47.83130787,0.4881,-0.025557002,-0.373336227,1,0,0,NextBu,0.802544581,59,0,59,0,1,,,,,2022-07-28_10h29.45.651,FaceAttractiveness,2022.2.2,MacIntel,60.0024001,60c6b3ea487c6f366b92e5e3,62dfe6a3e28b448cf3e9d0db,0mkbetpw4h7,,,,,,,,
,,,,,100.4468,Extremely Unattractive,Extremely  Attractive,mirrored,CFD_WF_002_004_N.png,RCHEEK,3,47.85698785,0.5919,-0.02671441,-0.360185185,1,0,0,NextBu,0.984772238,60,0,60,0,1,,,,,2022-07-28_10h29.45.651,FaceAttractiveness,2022.2.2,MacIntel,60.0024001,60c6b3ea487c6f366b92e5e3,62dfe6a3e28b448cf3e9d0db,0mkbetpw4h7,,,,,,,,
,,,,,102.2309,Extremely Unattractive,Extremely  Attractive,mirrored,CFD_LM_203_026_N.png,LIP,3,47.80454282,0.6761,-0.015129485,-0.365733507,1,0,0,NextBu,0.68222399,61,0,61,0,1,,,,,2022-07-28_10h29.45.651,FaceAttractiveness,2022.2.2,MacIntel,60.0024001,60c6b3ea487c6f366b92e5e3,62dfe6a3e28b448cf3e9d0db,0mkbetpw4h7,,,,,,,,
,,,,,103.7974,Extremely Unattractive,Extremely  Attractive,mirrored,CFD_LM_201_057_N.png,LIP,3,49.05381944,0.5405,-0.01370081,-0.37650463,1,0,0,NextBu,0.97056224,62,0,62,0,1,,,,,2022-07-28_10h29.45.651,FaceAttractiveness,2022.2.2,MacIntel,60.0024001,60c6b3ea487c6f366b92e5e3,62dfe6a3e28b448cf3e9d0db,0mkbetpw4h7,,,,,,,,
,,,,,105.4972,Extremely Unattractive,Extremely  Attractive,mirrored,CFD_LF_224_176_N.png,RCHEEK,3,48.71274595,0.442,-0.014731626,-0.39447338,1,0,0,NextBu,0.635100478,63,0,63,0,1,,,,,2022-07-28_10h29.45.651,FaceAttractiveness,2022.2.2,MacIntel,60.0024001,60c6b3ea487c6f366b92e5e3,62dfe6a3e28b448cf3e9d0db,0mkbetpw4h7,,,,,,,,
,,,,,106.7807,Extremely Unattractive,Extremely  Attractive,mirrored,CFD_BM_234_172_N.png,LCHEEK,3,47.44755498,1.2771,-0.024851707,-0.402445023,1,0,0,NextBu,0.503226084,64,0,64,0,1,,,,,2022-07-28_10h29.45.651,FaceAttractiveness,2022.2.2,MacIntel,60.0024001,60c6b3ea487c6f366b92e5e3,62dfe6a3e28b448cf3e9d0db,0mkbetpw4h7,,,,,,,,
,,,,,108.7305,Extremely Unattractive,Extremely  Attractive,mirrored,CFD_BM_213_134_N.png,LCHEEK,3,47.6276765,0.5473,-0.020920139,-0.39448423,1,0,0,NextBu,0.904614421,65,0,65,0,1,,,,,2022-07-28_10h29.45.651,FaceAttractiveness,2022.2.2,MacIntel,60.0024001,60c6b3ea487c6f366b92e5e3,62dfe6a3e28b448cf3e9d0db,0mkbetpw4h7,,,,,,,,
,,,,,110.3483,Extremely Unattractive,Extremely  Attractive,mirrored,CFD_BF_224_002_N.png,LCHEEK,3,47.83998843,0.4566,-0.009620949,-0.386338976,1,0,0,NextBu,0.633300754,66,0,66,0,1,,,,,2022-07-28_10h29.45.651,FaceAttractiveness,2022.2.2,MacIntel,60.0024001,60c6b3ea487c6f366b92e5e3,62dfe6a3e28b448cf3e9d0db,0mkbetpw4h7,,,,,,,,
,,,,,111.648,Extremely Unattractive,Extremely  Attractive,mirrored,CFD_BF_214_308_N.png,NASALTIP,3,49.35872396,0.6398,-0.017769821,-0.379481337,1,0,0,NextBu,0.647582218,67,0,67,0,1,,,,,2022-07-28_10h29.45.651,FaceAttractiveness,2022.2.2,MacIntel,60.0024001,60c6b3ea487c6f366b92e5e3,62dfe6a3e28b448cf3e9d0db,0mkbetpw4h7,,,,,,,,
,,,,,113.1309,Extremely Unattractive,Extremely  Attractive,mirrored,CFD_AM_233_236_N.png,FOREHEAD,3,49.0910735,0.6144,-0.022428385,-0.378620515,1,0,0,NextBu,0.587487467,68,0,68,0,1,,,,,2022-07-28_10h29.45.651,FaceAttractiveness,2022.2.2,MacIntel,60.0024001,60c6b3ea487c6f366b92e5e3,62dfe6a3e28b448cf3e9d0db,0mkbetpw4h7,,,,,,,,
,,,,,114.4813,Extremely Unattractive,Extremely  Attractive,mirrored,CFD_AF_245_143_N.png,NASALTIP,3,49.52907986,0.6424,-0.018572772,-0.379604311,1,0,0,NextBu,0.761314087,69,0,69,0,1,,,,,2022-07-28_10h29.45.651,FaceAttractiveness,2022.2.2,MacIntel,60.0024001,60c6b3ea487c6f366b92e5e3,62dfe6a3e28b448cf3e9d0db,0mkbetpw4h7,,,,,,,,
,,,,,116.0151,Extremely Unattractive,Extremely  Attractive,mirrored,CFD_AF_237_223_N.png,FOREHEAD,3,50.4296875,0.4906,-0.009606481,-0.35885055,1,0,0,NextBu,0.730673842,70,0,70,0,1,,,,,2022-07-28_10h29.45.651,FaceAttractiveness,2022.2.2,MacIntel,60.0024001,60c6b3ea487c6f366b92e5e3,62dfe6a3e28b448cf3e9d0db,0mkbetpw4h7,,,,,,,,
,,,,,117.4304,Extremely Unattractive,Extremely  Attractive,mirrored,CFD_AF_231_357_N.png,RCHEEK,3,49.30193866,0.5478,-0.027853733,-0.373697917,1,0,0,NextBu,0.70280603,71,0,71,0,1,,,,,2022-07-28_10h29.45.651,FaceAttractiveness,2022.2.2,MacIntel,60.0024001,60c6b3ea487c6f366b92e5e3,62dfe6a3e28b448cf3e9d0db,0mkbetpw4h7,,,,,,,,
,,,,,118.8812,Extremely Unattractive,Extremely  Attractive,mirrored,136_M_M_N_A.png,LCHEEK,3,49.72258391,0.511,-0.014670139,-0.373929398,1,0,0,NextBu,0.559766296,72,0,72,0,1,,,,,2022-07-28_10h29.45.651,FaceAttractiveness,2022.2.2,MacIntel,60.0024001,60c6b3ea487c6f366b92e5e3,62dfe6a3e28b448cf3e9d0db,0mkbetpw4h7,,,,,,,,
,,,,,120.0976,Extremely Unattractive,Extremely  Attractive,mirrored,087_M_M_N_A.png,RCHEEK,3,48.92469618,0.6312,-0.020764612,-0.387004485,1,0,0,NextBu,0.50167927,73,0,73,0,1,,,,,2022-07-28_10h29.45.651,FaceAttractiveness,2022.2.2,MacIntel,60.0024001,60c6b3ea487c6f366b92e5e3,62dfe6a3e28b448cf3e9d0db,0mkbetpw4h7,,,,,,,,
,,,,,121.3976,Extremely Unattractive,Extremely  Attractive,mirrored,035_M_F_N_A.png,NASALTIP,3,48.72432002,1.0128,-0.013201678,-0.373976418,1,0,0,NextBu,0.599032234,74,0,74,0,1,,,,,2022-07-28_10h29.45.651,FaceAttractiveness,2022.2.2,MacIntel,60.0024001,60c6b3ea487c6f366b92e5e3,62dfe6a3e28b448cf3e9d0db,0mkbetpw4h7,,,,,,,,
,,,,,123.1807,Extremely Unattractive,Extremely  Attractive,mirrored,006_M_F_N_A.png,LCHEEK,3,45.2307581,0.7435,-0.037991898,-0.404821325,1,0,0,NextBu,0.718263111,75,0,75,0,1,,,,,2022-07-28_10h29.45.651,FaceAttractiveness,2022.2.2,MacIntel,60.0024001,60c6b3ea487c6f366b92e5e3,62dfe6a3e28b448cf3e9d0db,0mkbetpw4h7,,,,,,,,
,,,,,124.8149,Extremely Unattractive,Extremely  Attractive,mirrored,CFD_WM_212_097_N.png,RCHEEK,4,48.50007234,1.0891,-0.027217159,-0.3890625,1,0,0,NextBu,0.823227165,76,0,76,0,1,,,,,2022-07-28_10h29.45.651,FaceAttractiveness,2022.2.2,MacIntel,60.0024001,60c6b3ea487c6f366b92e5e3,62dfe6a3e28b448cf3e9d0db,0mkbetpw4h7,,,,,,,,
,,,,,126.8813,Extremely Unattractive,Extremely  Attractive,mirrored,CFD_WF_250_167_N.png,NASALTIP,4,48.16948785,0.6928,-0.024374277,-0.377524595,1,0,0,NextBu,0.628289494,77,0,77,0,1,,,,,2022-07-28_10h29.45.651,FaceAttractiveness,2022.2.2,MacIntel,60.0024001,60c6b3ea487c6f366b92e5e3,62dfe6a3e28b448cf3e9d0db,0mkbetpw4h7,,,,,,,,
,,,,,128.3305,Extremely Unattractive,Extremely  Attractive,mirrored,CFD_WF_200_099_N.png,LIP,4,48.58543113,0.4986,-0.003935185,-0.401396123,1,0,0,NextBu,0.829154211,78,0,78,0,1,,,,,2022-07-28_10h29.45.651,FaceAttractiveness,2022.2.2,MacIntel,60.0024001,60c6b3ea487c6f366b92e5e3,62dfe6a3e28b448cf3e9d0db,0mkbetpw4h7,,,,,,,,
,,,,,129.9313,Extremely Unattractive,Extremely  Attractive,mirrored,CFD_WF_002_004_N.png,FOREHEAD,4,48.18070023,0.4245,-0.017755353,-0.365064381,1,0,0,NextBu,0.750074053,79,0,79,0,1,,,,,2022-07-28_10h29.45.651,FaceAttractiveness,2022.2.2,MacIntel,60.0024001,60c6b3ea487c6f366b92e5e3,62dfe6a3e28b448cf3e9d0db,0mkbetpw4h7,,,,,,,,
,,,,,131.2641,Extremely Unattractive,Extremely  Attractive,mirrored,CFD_LM_203_026_N.png,FOREHEAD,4,49.47916667,0.3922,-0.017824074,-0.379799624,1,0,0,NextBu,0.580023229,80,0,80,0,1,,,,,2022-07-28_10h29.45.651,FaceAttractiveness,2022.2.2,MacIntel,60.0024001,60c6b3ea487c6f366b92e5e3,62dfe6a3e28b448cf3e9d0db,0mkbetpw4h7,,,,,,,,
,,,,,132.815,Extremely Unattractive,Extremely  Attractive,mirrored,CFD_LM_201_057_N.png,LCHEEK,4,48.11812789,0.707,-0.028490307,-0.386324508,1,0,0,NextBu,0.99994733,81,0,81,0,1,,,,,2022-07-28_10h29.45.651,FaceAttractiveness,2022.2.2,MacIntel,60.0024001,60c6b3ea487c6f366b92e5e3,62dfe6a3e28b448cf3e9d0db,0mkbetpw4h7,,,,,,,,
,,,,,135.2317,Extremely Unattractive,Extremely  Attractive,mirrored,CFD_LF_224_176_N.png,LIP,4,48.93229167,0.4575,-0.025896991,-0.385196036,1,0,0,NextBu,0.998311171,82,0,82,0,1,,,,,2022-07-28_10h29.45.651,FaceAttractiveness,2022.2.2,MacIntel,60.0024001,60c6b3ea487c6f366b92e5e3,62dfe6a3e28b448cf3e9d0db,0mkbetpw4h7,,,,,,,,
,,,,,136.8979,Extremely Unattractive,Extremely  Attractive,mirrored,CFD_BM_234_172_N.png,LIP,4,49.53305845,0.7741,-0.023766638,-0.390234375,1,0,0,NextBu,0.617526426,83,0,83,0,1,,,,,2022-07-28_10h29.45.651,FaceAttractiveness,2022.2.2,MacIntel,60.0024001,60c6b3ea487c6f366b92e5e3,62dfe6a3e28b448cf3e9d0db,0mkbetpw4h7,,,,,,,,
,,,,,138.4645,Extremely Unattractive,Extremely  Attractive,mirrored,CFD_BM_213_134_N.png,LIP,4,37.90545428,1.1138,-0.057631655,-0.431904659,1,0,0,NextBu,0.563926869,84,0,84,0,1,,,,,2022-07-28_10h29.45.651,FaceAttractiveness,2022.2.2,MacIntel,60.0024001,60c6b3ea487c6f366b92e5e3,62dfe6a3e28b448cf3e9d0db,0mkbetpw4h7,,,,,,,,
,,,,,140.331,Extremely Unattractive,Extremely  Attractive,mirrored,CFD_BF_224_002_N.png,LIP,4,43.39373553,0.6904,-0.043511285,-0.377817564,1,0,0,NextBu,0.634374758,85,0,85,0,1,,,,,2022-07-28_10h29.45.651,FaceAttractiveness,2022.2.2,MacIntel,60.0024001,60c6b3ea487c6f366b92e5e3,62dfe6a3e28b448cf3e9d0db,0mkbetpw4h7,,,,,,,,
,,,,,141.8481,Extremely Unattractive,Extremely  Attractive,mirrored,CFD_BF_214_308_N.png,LCHEEK,4,44.9041522,0.6741,-0.016413484,-0.391048177,1,0,0,NextBu,0.856919874,86,0,86,0,1,,,,,2022-07-28_10h29.45.651,FaceAttractiveness,2022.2.2,MacIntel,60.0024001,60c6b3ea487c6f366b92e5e3,62dfe6a3e28b448cf3e9d0db,0mkbetpw4h7,,,,,,,,
,,,,,143.5476,Extremely Unattractive,Extremely  Attractive,mirrored,CFD_AM_233_236_N.png,LCHEEK,4,46.65581597,0.5631,-0.031694878,-0.369317853,1,0,0,NextBu,0.585580221,87,0,87,0,1,,,,,2022-07-28_10h29.45.651,FaceAttractiveness,2022.2.2,MacIntel,60.0024001,60c6b3ea487c6f366b92e5e3,62dfe6a3e28b448cf3e9d0db,0mkbetpw4h7,,,,,,,,
,,,,,144.8473,Extremely Unattractive,Extremely  Attractive,mirrored,CFD_AF_245_143_N.png,LCHEEK,4,47.17773438,0.5888,-0.026367188,-0.380128762,1,0,0,NextBu,0.827907457,88,0,88,0,1,,,,,2022-07-28_10h29.45.651,FaceAttractiveness,2022.2.2,MacIntel,60.0024001,60c6b3ea487c6f366b92e5e3,62dfe6a3e28b448cf3e9d0db,0mkbetpw4h7,,,,,,,,
,,,,,146.398,Extremely Unattractive,Extremely  Attractive,mirrored,CFD_AF_237_223_N.png,RCHEEK,4,49.56344039,1.5886,0.000549769,-0.423611111,1,0,0,NextBu,0.91381111,89,0,89,0,1,,,,,2022-07-28_10h29.45.651,FaceAttractiveness,2022.2.2,MacIntel,60.0024001,60c6b3ea487c6f366b92e5e3,62dfe6a3e28b448cf3e9d0db,0mkbetpw4h7,,,,,,,,
,,,,,149.0641,Extremely Unattractive,Extremely  Attractive,mirrored,CFD_AF_231_357_N.png,LIP,4,50.3729022,0.5748,0.003569878,-0.3591182,1,0,0,NextBu,0.511973527,90,0,90,0,1,,,,,2022-07-28_10h29.45.651,FaceAttractiveness,2022.2.2,MacIntel,60.0024001,60c6b3ea487c6f366b92e5e3,62dfe6a3e28b448cf3e9d0db,0mkbetpw4h7,,,,,,,,
,,,,,150.2989,Extremely Unattractive,Extremely  Attractive,mirrored,136_M_M_N_A.png,RCHEEK,4,49.83760127,0.7581,0.003247975,-0.373300058,1,0,0,NextBu,0.879970198,91,0,91,0,1,,,,,2022-07-28_10h29.45.651,FaceAttractiveness,2022.2.2,MacIntel,60.0024001,60c6b3ea487c6f366b92e5e3,62dfe6a3e28b448cf3e9d0db,0mkbetpw4h7,,,,,,,,
,,,,,152.0823,Extremely Unattractive,Extremely  Attractive,mirrored,087_M_M_N_A.png,LCHEEK,4,50.9516059,0.4812,-0.006445312,-0.363342737,1,0,0,NextBu,0.748677715,92,0,92,0,1,,,,,2022-07-28_10h29.45.651,FaceAttractiveness,2022.2.2,MacIntel,60.0024001,60c6b3ea487c6f366b92e5e3,62dfe6a3e28b448cf3e9d0db,0mkbetpw4h7,,,,,,,,
,,,,,153.9314,Extremely Unattractive,Extremely  Attractive,mirrored,035_M_F_N_A.png,LIP,4,51.32486979,0.6586,-0.001117622,-0.358434606,1,0,0,NextBu,0.733593511,93,0,93,0,1,,,,,2022-07-28_10h29.45.651,FaceAttractiveness,2022.2.2,MacIntel,60.0024001,60c6b3ea487c6f366b92e5e3,62dfe6a3e28b448cf3e9d0db,0mkbetpw4h7,,,,,,,,
,,,,,155.4819,Extremely Unattractive,Extremely  Attractive,mirrored,006_M_F_N_A.png,LIP,4,45.84816262,0.7904,-0.016247106,-0.359440104,1,0,0,NextBu,0.708945004,94,0,94,0,1,,,,,2022-07-28_10h29.45.651,FaceAttractiveness,2022.2.2,MacIntel,60.0024001,60c6b3ea487c6f366b92e5e3,62dfe6a3e28b448cf3e9d0db,0mkbetpw4h7,,,,,,,,
,,,,,,,,,,,,,,,,,,,,,,,,,,,,,,2022-07-28_10h29.45.651,FaceAttractiveness,2022.2.2,MacIntel,60.0024001,60c6b3ea487c6f366b92e5e3,62dfe6a3e28b448cf3e9d0db,0mkbetpw4h7,0,0,0,0,1,Attractiveness,Extremely  Attractive,Extremely Unattractive
,,,,,,,,,,,,,,,,,,,,,,,,,,,,,,2022-07-28_10h29.45.651,FaceAttractiveness,2022.2.2,MacIntel,60.0024001,60c6b3ea487c6f366b92e5e3,62dfe6a3e28b448cf3e9d0db,0mkbetpw4h7,,,,,,,,
