mouse.x,mouse.y,mouse.leftButton,mouse.midButton,mouse.rightButton,onsetTime,leftText,rightText,sliderDirection,face,lesion,block,slider.response,slider.rt,mouse_5.x,mouse_5.y,mouse_5.leftButton,mouse_5.midButton,mouse_5.rightButton,mouse_5.clicked_name,ITI,originalFaceTrials.thisRepN,originalFaceTrials.thisTrialN,originalFaceTrials.thisN,originalFaceTrials.thisIndex,originalFaceTrials.ran,Name,Gender,Age,date,expName,psychopyVersion,OS,frameRate,STUDY_ID,SESSION_ID,RatingBlockOrder.thisRepN,RatingBlockOrder.thisTrialN,RatingBlockOrder.thisN,RatingBlockOrder.thisIndex,RatingBlockOrder.ran,Task,LeftLabel,RightLabel
0.091210938,-0.227264178,1,0,0,2.6431,Extremely  Attractive,Extremely Unattractive,normal,CFD_WM_212_097_N.png,FOREHEAD,0,63.05157697,1.4207,0.012550637,-0.376124855,1,0,0,NextBu,0.682561846,0,0,0,0,1,60c6b3ea487c6f366b92e5e3,,,2022-07-28_09h05.13.677,FaceAttractiveness,2022.2.2,MacIntel,60.0024001,62dfe6a3e28b448cf3e9d0db,05ve24g3gbgc,,,,,,,,
,,,,,5.5408,Extremely  Attractive,Extremely Unattractive,normal,CFD_WF_250_167_N.png,FOREHEAD,0,43.37818287,0.8102,-0.026208044,-0.351244213,1,0,0,NextBu,0.612001437,1,0,1,0,1,60c6b3ea487c6f366b92e5e3,,,2022-07-28_09h05.13.677,FaceAttractiveness,2022.2.2,MacIntel,60.0024001,62dfe6a3e28b448cf3e9d0db,05ve24g3gbgc,,,,,,,,
,,,,,7.2569,Extremely  Attractive,Extremely Unattractive,normal,CFD_WF_200_099_N.png,FOREHEAD,0,48.54600694,0.6746,-0.02573423,-0.353508391,1,0,0,NextBu,0.567672925,2,0,2,0,1,60c6b3ea487c6f366b92e5e3,,,2022-07-28_09h05.13.677,FaceAttractiveness,2022.2.2,MacIntel,60.0024001,62dfe6a3e28b448cf3e9d0db,05ve24g3gbgc,,,,,,,,
,,,,,8.7734,Extremely  Attractive,Extremely Unattractive,normal,CFD_WF_002_004_N.png,FOREHEAD,0,49.24768519,0.8983,-0.02239945,-0.369097222,1,0,0,NextBu,0.921924339,3,0,3,0,1,60c6b3ea487c6f366b92e5e3,,,2022-07-28_09h05.13.677,FaceAttractiveness,2022.2.2,MacIntel,60.0024001,62dfe6a3e28b448cf3e9d0db,05ve24g3gbgc,,,,,,,,
,,,,,10.9896,Extremely  Attractive,Extremely Unattractive,normal,CFD_LM_203_026_N.png,LCHEEK,0,51.60373264,0.8733,-0.013751447,-0.379394531,1,0,0,NextBu,0.798758947,4,0,4,0,1,60c6b3ea487c6f366b92e5e3,,,2022-07-28_09h05.13.677,FaceAttractiveness,2022.2.2,MacIntel,60.0024001,62dfe6a3e28b448cf3e9d0db,05ve24g3gbgc,,,,,,,,
,,,,,12.9894,Extremely  Attractive,Extremely Unattractive,normal,CFD_LM_201_057_N.png,LIP,0,58.90154803,0.8415,0.024974682,-0.386013455,1,0,0,NextBu,0.94334022,5,0,5,0,1,60c6b3ea487c6f366b92e5e3,,,2022-07-28_09h05.13.677,FaceAttractiveness,2022.2.2,MacIntel,60.0024001,62dfe6a3e28b448cf3e9d0db,05ve24g3gbgc,,,,,,,,
,,,,,15.1064,Extremely  Attractive,Extremely Unattractive,normal,CFD_LF_224_176_N.png,LCHEEK,0,62.07103588,0.7105,0.039131221,-0.389503762,1,0,0,NextBu,0.601232784,6,0,6,0,1,60c6b3ea487c6f366b92e5e3,,,2022-07-28_09h05.13.677,FaceAttractiveness,2022.2.2,MacIntel,60.0024001,62dfe6a3e28b448cf3e9d0db,05ve24g3gbgc,,,,,,,,
,,,,,16.6895,Extremely  Attractive,Extremely Unattractive,normal,CFD_BM_234_172_N.png,LIP,0,45.76244213,0.8617,-0.002217159,-0.391055411,1,0,0,NextBu,0.600988083,7,0,7,0,1,60c6b3ea487c6f366b92e5e3,,,2022-07-28_09h05.13.677,FaceAttractiveness,2022.2.2,MacIntel,60.0024001,62dfe6a3e28b448cf3e9d0db,05ve24g3gbgc,,,,,,,,
,,,,,18.423,Extremely  Attractive,Extremely Unattractive,normal,CFD_BM_213_134_N.png,NASALTIP,0,57.06163194,0.6903,0.024041522,-0.403804977,1,0,0,NextBu,0.971885678,8,0,8,0,1,60c6b3ea487c6f366b92e5e3,,,2022-07-28_09h05.13.677,FaceAttractiveness,2022.2.2,MacIntel,60.0024001,62dfe6a3e28b448cf3e9d0db,05ve24g3gbgc,,,,,,,,
,,,,,20.34,Extremely  Attractive,Extremely Unattractive,normal,CFD_BF_224_002_N.png,NASALTIP,0,62.31843171,0.6114,0.039648438,-0.398473669,1,0,0,NextBu,0.524916578,9,0,9,0,1,60c6b3ea487c6f366b92e5e3,,,2022-07-28_09h05.13.677,FaceAttractiveness,2022.2.2,MacIntel,60.0024001,62dfe6a3e28b448cf3e9d0db,05ve24g3gbgc,,,,,,,,
,,,,,21.7229,Extremely  Attractive,Extremely Unattractive,normal,CFD_BF_214_308_N.png,RCHEEK,0,58.80750868,0.7742,0.03811849,-0.393825955,1,0,0,NextBu,0.669211606,10,0,10,0,1,60c6b3ea487c6f366b92e5e3,,,2022-07-28_09h05.13.677,FaceAttractiveness,2022.2.2,MacIntel,60.0024001,62dfe6a3e28b448cf3e9d0db,05ve24g3gbgc,,,,,,,,
,,,,,23.4058,Extremely  Attractive,Extremely Unattractive,normal,CFD_AM_233_236_N.png,LIP,0,46.68764468,0.6089,0.013295718,-0.415928819,1,0,0,NextBu,0.786035465,11,0,11,0,1,60c6b3ea487c6f366b92e5e3,,,2022-07-28_09h05.13.677,FaceAttractiveness,2022.2.2,MacIntel,60.0024001,62dfe6a3e28b448cf3e9d0db,05ve24g3gbgc,,,,,,,,
,,,,,25.0223,Extremely  Attractive,Extremely Unattractive,normal,CFD_AF_245_143_N.png,NASALTIP,0,60.3551794,0.6758,0.046430122,-0.380779803,1,0,0,NextBu,0.91964281,12,0,12,0,1,60c6b3ea487c6f366b92e5e3,,,2022-07-28_09h05.13.677,FaceAttractiveness,2022.2.2,MacIntel,60.0024001,62dfe6a3e28b448cf3e9d0db,05ve24g3gbgc,,,,,,,,
,,,,,26.8394,Extremely  Attractive,Extremely Unattractive,normal,CFD_AF_237_223_N.png,NASALTIP,0,43.20276331,0.7985,-0.034103733,-0.373278356,1,0,0,NextBu,0.851021467,13,0,13,0,1,60c6b3ea487c6f366b92e5e3,,,2022-07-28_09h05.13.677,FaceAttractiveness,2022.2.2,MacIntel,60.0024001,62dfe6a3e28b448cf3e9d0db,05ve24g3gbgc,,,,,,,,
,,,,,28.7237,Extremely  Attractive,Extremely Unattractive,normal,CFD_AF_231_357_N.png,LIP,0,53.10329861,0.7067,0.023817274,-0.353826678,1,0,0,NextBu,0.573976949,14,0,14,0,1,60c6b3ea487c6f366b92e5e3,,,2022-07-28_09h05.13.677,FaceAttractiveness,2022.2.2,MacIntel,60.0024001,62dfe6a3e28b448cf3e9d0db,05ve24g3gbgc,,,,,,,,
,,,,,30.2904,Extremely  Attractive,Extremely Unattractive,normal,136_M_M_N_A.png,FOREHEAD,0,54.66688368,0.7919,0.00583044,-0.412731481,1,0,0,NextBu,0.983004831,15,0,15,0,1,60c6b3ea487c6f366b92e5e3,,,2022-07-28_09h05.13.677,FaceAttractiveness,2022.2.2,MacIntel,60.0024001,62dfe6a3e28b448cf3e9d0db,05ve24g3gbgc,,,,,,,,
,,,,,32.34,Extremely  Attractive,Extremely Unattractive,normal,087_M_M_N_A.png,FOREHEAD,0,56.67136863,1.4244,0.027900752,-0.368572772,1,0,0,NextBu,0.747430484,16,0,16,0,1,60c6b3ea487c6f366b92e5e3,,,2022-07-28_09h05.13.677,FaceAttractiveness,2022.2.2,MacIntel,60.0024001,62dfe6a3e28b448cf3e9d0db,05ve24g3gbgc,,,,,,,,
,,,,,34.7897,Extremely  Attractive,Extremely Unattractive,normal,035_M_F_N_A.png,FOREHEAD,0,47.41898148,0.9893,7.59549E-05,-0.369209346,1,0,0,NextBu,0.802924161,17,0,17,0,1,60c6b3ea487c6f366b92e5e3,,,2022-07-28_09h05.13.677,FaceAttractiveness,2022.2.2,MacIntel,60.0024001,62dfe6a3e28b448cf3e9d0db,05ve24g3gbgc,,,,,,,,
,,,,,36.8729,Extremely  Attractive,Extremely Unattractive,normal,006_M_F_N_A.png,NASALTIP,0,45.18952546,0.8754,-0.014033565,-0.386964699,1,0,0,NextBu,0.835123796,18,0,18,0,1,60c6b3ea487c6f366b92e5e3,,,2022-07-28_09h05.13.677,FaceAttractiveness,2022.2.2,MacIntel,60.0024001,62dfe6a3e28b448cf3e9d0db,05ve24g3gbgc,,,,,,,,
,,,,,38.8732,Extremely  Attractive,Extremely Unattractive,normal,CFD_WM_212_097_N.png,LIP,1,59.072989,0.8101,0.03021195,-0.3890625,1,0,0,NextBu,0.636251238,19,0,19,0,1,60c6b3ea487c6f366b92e5e3,,,2022-07-28_09h05.13.677,FaceAttractiveness,2022.2.2,MacIntel,60.0024001,62dfe6a3e28b448cf3e9d0db,05ve24g3gbgc,,,,,,,,
,,,,,40.5734,Extremely  Attractive,Extremely Unattractive,normal,CFD_WF_250_167_N.png,NASALTIP,1,41.33572049,0.891,-0.027253328,-0.383557581,1,0,0,NextBu,0.927817953,20,0,20,0,1,60c6b3ea487c6f366b92e5e3,,,2022-07-28_09h05.13.677,FaceAttractiveness,2022.2.2,MacIntel,60.0024001,62dfe6a3e28b448cf3e9d0db,05ve24g3gbgc,,,,,,,,
,,,,,42.623,Extremely  Attractive,Extremely Unattractive,normal,CFD_WF_200_099_N.png,NASALTIP,1,56.40878183,0.8074,0.025462963,-0.396169705,1,0,0,NextBu,0.939495653,21,0,21,0,1,60c6b3ea487c6f366b92e5e3,,,2022-07-28_09h05.13.677,FaceAttractiveness,2022.2.2,MacIntel,60.0024001,62dfe6a3e28b448cf3e9d0db,05ve24g3gbgc,,,,,,,,
,,,,,44.5895,Extremely  Attractive,Extremely Unattractive,normal,CFD_WF_002_004_N.png,NASALTIP,1,39.2578125,0.7314,-0.035677083,-0.400737847,1,0,0,NextBu,0.810314694,22,0,22,0,1,60c6b3ea487c6f366b92e5e3,,,2022-07-28_09h05.13.677,FaceAttractiveness,2022.2.2,MacIntel,60.0024001,62dfe6a3e28b448cf3e9d0db,05ve24g3gbgc,,,,,,,,
,,,,,46.423,Extremely  Attractive,Extremely Unattractive,normal,CFD_LM_203_026_N.png,RCHEEK,1,59.67592593,0.881,0.047370515,-0.39239728,1,0,0,NextBu,0.878203794,23,0,23,0,1,60c6b3ea487c6f366b92e5e3,,,2022-07-28_09h05.13.677,FaceAttractiveness,2022.2.2,MacIntel,60.0024001,62dfe6a3e28b448cf3e9d0db,05ve24g3gbgc,,,,,,,,
,,,,,48.3567,Extremely  Attractive,Extremely Unattractive,normal,CFD_LM_201_057_N.png,LCHEEK,1,49.57067419,0.7053,0.007414641,-0.390429688,1,0,0,NextBu,0.575921921,24,0,24,0,1,60c6b3ea487c6f366b92e5e3,,,2022-07-28_09h05.13.677,FaceAttractiveness,2022.2.2,MacIntel,60.0024001,62dfe6a3e28b448cf3e9d0db,05ve24g3gbgc,,,,,,,,
,,,,,49.9066,Extremely  Attractive,Extremely Unattractive,normal,CFD_LF_224_176_N.png,RCHEEK,1,40.9906684,0.6737,-0.068580006,-0.391710069,1,0,0,NextBu,0.551150977,25,0,25,0,1,60c6b3ea487c6f366b92e5e3,,,2022-07-28_09h05.13.677,FaceAttractiveness,2022.2.2,MacIntel,60.0024001,62dfe6a3e28b448cf3e9d0db,05ve24g3gbgc,,,,,,,,
,,,,,51.3744,Extremely  Attractive,Extremely Unattractive,normal,CFD_BM_234_172_N.png,NASALTIP,1,58.58253762,0.7739,0.027578848,-0.398303675,1,0,0,NextBu,0.760616286,26,0,26,0,1,60c6b3ea487c6f366b92e5e3,,,2022-07-28_09h05.13.677,FaceAttractiveness,2022.2.2,MacIntel,60.0024001,62dfe6a3e28b448cf3e9d0db,05ve24g3gbgc,,,,,,,,
,,,,,53.123,Extremely  Attractive,Extremely Unattractive,normal,CFD_BM_213_134_N.png,LCHEEK,1,45.14250579,0.6607,-0.047500723,-0.389413339,1,0,0,NextBu,0.944183975,27,0,27,0,1,60c6b3ea487c6f366b92e5e3,,,2022-07-28_09h05.13.677,FaceAttractiveness,2022.2.2,MacIntel,60.0024001,62dfe6a3e28b448cf3e9d0db,05ve24g3gbgc,,,,,,,,
,,,,,54.9728,Extremely  Attractive,Extremely Unattractive,normal,CFD_BF_224_002_N.png,LCHEEK,1,61.09592014,0.6136,0.023224103,-0.391847512,1,0,0,NextBu,0.892527085,28,0,28,0,1,60c6b3ea487c6f366b92e5e3,,,2022-07-28_09h05.13.677,FaceAttractiveness,2022.2.2,MacIntel,60.0024001,62dfe6a3e28b448cf3e9d0db,05ve24g3gbgc,,,,,,,,
,,,,,56.7234,Extremely  Attractive,Extremely Unattractive,normal,CFD_BF_214_308_N.png,FOREHEAD,1,41.41963252,0.6575,-0.037818287,-0.387178096,1,0,0,NextBu,0.675294605,29,0,29,0,1,60c6b3ea487c6f366b92e5e3,,,2022-07-28_09h05.13.677,FaceAttractiveness,2022.2.2,MacIntel,60.0024001,62dfe6a3e28b448cf3e9d0db,05ve24g3gbgc,,,,,,,,
,,,,,58.3241,Extremely  Attractive,Extremely Unattractive,normal,CFD_AM_233_236_N.png,RCHEEK,1,63.62883391,0.6238,0.036273872,-0.392715567,1,0,0,NextBu,0.865749965,30,0,30,0,1,60c6b3ea487c6f366b92e5e3,,,2022-07-28_09h05.13.677,FaceAttractiveness,2022.2.2,MacIntel,60.0024001,62dfe6a3e28b448cf3e9d0db,05ve24g3gbgc,,,,,,,,
,,,,,60.0736,Extremely  Attractive,Extremely Unattractive,normal,CFD_AF_245_143_N.png,FOREHEAD,1,59.06467014,0.6309,0.018840422,-0.395565683,1,0,0,NextBu,0.648138384,31,0,31,0,1,60c6b3ea487c6f366b92e5e3,,,2022-07-28_09h05.13.677,FaceAttractiveness,2022.2.2,MacIntel,60.0024001,62dfe6a3e28b448cf3e9d0db,05ve24g3gbgc,,,,,,,,
,,,,,61.59,Extremely  Attractive,Extremely Unattractive,normal,CFD_AF_237_223_N.png,LCHEEK,1,46.96325231,0.7139,-0.010243056,-0.392784288,1,0,0,NextBu,0.6107661,32,0,32,0,1,60c6b3ea487c6f366b92e5e3,,,2022-07-28_09h05.13.677,FaceAttractiveness,2022.2.2,MacIntel,60.0024001,62dfe6a3e28b448cf3e9d0db,05ve24g3gbgc,,,,,,,,
,,,,,63.1565,Extremely  Attractive,Extremely Unattractive,normal,CFD_AF_231_357_N.png,RCHEEK,1,41.25289352,0.6819,-0.024244068,-0.391659433,1,0,0,NextBu,0.889981074,33,0,33,0,1,60c6b3ea487c6f366b92e5e3,,,2022-07-28_09h05.13.677,FaceAttractiveness,2022.2.2,MacIntel,60.0024001,62dfe6a3e28b448cf3e9d0db,05ve24g3gbgc,,,,,,,,
,,,,,64.9902,Extremely  Attractive,Extremely Unattractive,normal,136_M_M_N_A.png,RCHEEK,1,57.33181424,0.6932,0.010221354,-0.39672309,1,0,0,NextBu,0.740700633,34,0,34,0,1,60c6b3ea487c6f366b92e5e3,,,2022-07-28_09h05.13.677,FaceAttractiveness,2022.2.2,MacIntel,60.0024001,62dfe6a3e28b448cf3e9d0db,05ve24g3gbgc,,,,,,,,
,,,,,66.7228,Extremely  Attractive,Extremely Unattractive,normal,087_M_M_N_A.png,RCHEEK,1,50.9302662,1.5109,-0.006380208,-0.380960648,1,0,0,NextBu,0.916663314,35,0,35,0,1,60c6b3ea487c6f366b92e5e3,,,2022-07-28_09h05.13.677,FaceAttractiveness,2022.2.2,MacIntel,60.0024001,62dfe6a3e28b448cf3e9d0db,05ve24g3gbgc,,,,,,,,
,,,,,69.373,Extremely  Attractive,Extremely Unattractive,normal,035_M_F_N_A.png,RCHEEK,1,52.66999421,1.2583,0.006159578,-0.409436487,1,0,0,NextBu,0.785606994,36,0,36,0,1,60c6b3ea487c6f366b92e5e3,,,2022-07-28_09h05.13.677,FaceAttractiveness,2022.2.2,MacIntel,60.0024001,62dfe6a3e28b448cf3e9d0db,05ve24g3gbgc,,,,,,,,
,,,,,71.7075,Extremely  Attractive,Extremely Unattractive,normal,006_M_F_N_A.png,LIP,1,48.98003472,0.9652,-0.003132234,-0.422406684,1,0,0,NextBu,0.856531021,37,0,37,0,1,60c6b3ea487c6f366b92e5e3,,,2022-07-28_09h05.13.677,FaceAttractiveness,2022.2.2,MacIntel,60.0024001,62dfe6a3e28b448cf3e9d0db,05ve24g3gbgc,,,,,,,,
,,,,,73.8239,Extremely  Attractive,Extremely Unattractive,normal,CFD_WM_212_097_N.png,NASALTIP,2,50.04738137,1.0908,0.000394242,-0.391207321,1,0,0,NextBu,0.771985631,38,0,38,0,1,60c6b3ea487c6f366b92e5e3,,,2022-07-28_09h05.13.677,FaceAttractiveness,2022.2.2,MacIntel,60.0024001,62dfe6a3e28b448cf3e9d0db,05ve24g3gbgc,,,,,,,,
,,,,,75.9078,Extremely  Attractive,Extremely Unattractive,normal,CFD_WF_250_167_N.png,RCHEEK,2,51.05758102,0.7142,0.010626447,-0.386530671,1,0,0,NextBu,0.731459397,39,0,39,0,1,60c6b3ea487c6f366b92e5e3,,,2022-07-28_09h05.13.677,FaceAttractiveness,2022.2.2,MacIntel,60.0024001,62dfe6a3e28b448cf3e9d0db,05ve24g3gbgc,,,,,,,,
,,,,,77.6242,Extremely  Attractive,Extremely Unattractive,normal,CFD_WF_200_099_N.png,LIP,2,49.82458044,0.7464,-0.006843171,-0.39202474,1,0,0,NextBu,0.677987197,40,0,40,0,1,60c6b3ea487c6f366b92e5e3,,,2022-07-28_09h05.13.677,FaceAttractiveness,2022.2.2,MacIntel,60.0024001,62dfe6a3e28b448cf3e9d0db,05ve24g3gbgc,,,,,,,,
,,,,,79.3232,Extremely  Attractive,Extremely Unattractive,normal,CFD_WF_002_004_N.png,LIP,2,45.66514757,0.6908,-0.033304398,-0.434049479,1,0,0,NextBu,0.6891038,41,0,41,0,1,60c6b3ea487c6f366b92e5e3,,,2022-07-28_09h05.13.677,FaceAttractiveness,2022.2.2,MacIntel,60.0024001,62dfe6a3e28b448cf3e9d0db,05ve24g3gbgc,,,,,,,,
,,,,,81.0237,Extremely  Attractive,Extremely Unattractive,normal,CFD_LM_203_026_N.png,FOREHEAD,2,51.85438368,0.8441,-0.005743634,-0.398003472,1,0,0,NextBu,0.697190724,42,0,42,0,1,60c6b3ea487c6f366b92e5e3,,,2022-07-28_09h05.13.677,FaceAttractiveness,2022.2.2,MacIntel,60.0024001,62dfe6a3e28b448cf3e9d0db,05ve24g3gbgc,,,,,,,,
,,,,,82.7732,Extremely  Attractive,Extremely Unattractive,normal,CFD_LM_201_057_N.png,RCHEEK,2,50.80114294,0.6262,0.007458044,-0.397735822,1,0,0,NextBu,0.757924348,43,0,43,0,1,60c6b3ea487c6f366b92e5e3,,,2022-07-28_09h05.13.677,FaceAttractiveness,2022.2.2,MacIntel,60.0024001,62dfe6a3e28b448cf3e9d0db,05ve24g3gbgc,,,,,,,,
,,,,,84.4234,Extremely  Attractive,Extremely Unattractive,normal,CFD_LF_224_176_N.png,NASALTIP,2,40.91652199,0.8739,-0.020768229,-0.396842448,1,0,0,NextBu,0.880461897,44,0,44,0,1,60c6b3ea487c6f366b92e5e3,,,2022-07-28_09h05.13.677,FaceAttractiveness,2022.2.2,MacIntel,60.0024001,62dfe6a3e28b448cf3e9d0db,05ve24g3gbgc,,,,,,,,
,,,,,86.4229,Extremely  Attractive,Extremely Unattractive,normal,CFD_BM_234_172_N.png,RCHEEK,2,52.5462963,0.6612,-0.00322989,-0.413888889,1,0,0,NextBu,0.524458766,45,0,45,0,1,60c6b3ea487c6f366b92e5e3,,,2022-07-28_09h05.13.677,FaceAttractiveness,2022.2.2,MacIntel,60.0024001,62dfe6a3e28b448cf3e9d0db,05ve24g3gbgc,,,,,,,,
,,,,,87.8729,Extremely  Attractive,Extremely Unattractive,normal,CFD_BM_213_134_N.png,LIP,2,36.73104745,1.0899,-0.054991319,-0.39015842,1,0,0,NextBu,0.681633149,46,0,46,0,1,60c6b3ea487c6f366b92e5e3,,,2022-07-28_09h05.13.677,FaceAttractiveness,2022.2.2,MacIntel,60.0024001,62dfe6a3e28b448cf3e9d0db,05ve24g3gbgc,,,,,,,,
,,,,,89.9239,Extremely  Attractive,Extremely Unattractive,normal,CFD_BF_224_002_N.png,LIP,2,41.02068866,0.6579,-0.037659144,-0.414322917,1,0,0,NextBu,0.632583265,47,0,47,0,1,60c6b3ea487c6f366b92e5e3,,,2022-07-28_09h05.13.677,FaceAttractiveness,2022.2.2,MacIntel,60.0024001,62dfe6a3e28b448cf3e9d0db,05ve24g3gbgc,,,,,,,,
,,,,,91.4572,Extremely  Attractive,Extremely Unattractive,normal,CFD_BF_214_308_N.png,NASALTIP,2,45.64887153,0.8764,-0.03416522,-0.385398582,1,0,0,NextBu,0.657705147,48,0,48,0,1,60c6b3ea487c6f366b92e5e3,,,2022-07-28_09h05.13.677,FaceAttractiveness,2022.2.2,MacIntel,60.0024001,62dfe6a3e28b448cf3e9d0db,05ve24g3gbgc,,,,,,,,
,,,,,93.2579,Extremely  Attractive,Extremely Unattractive,normal,CFD_AM_233_236_N.png,LCHEEK,2,47.15747975,0.7734,-0.055801505,-0.396647135,1,0,0,NextBu,0.907040165,49,0,49,0,1,60c6b3ea487c6f366b92e5e3,,,2022-07-28_09h05.13.677,FaceAttractiveness,2022.2.2,MacIntel,60.0024001,62dfe6a3e28b448cf3e9d0db,05ve24g3gbgc,,,,,,,,
,,,,,95.1405,Extremely  Attractive,Extremely Unattractive,normal,CFD_AF_245_143_N.png,LCHEEK,2,39.12941262,0.7118,-0.049388744,-0.397287326,1,0,0,NextBu,0.641241895,50,0,50,0,1,60c6b3ea487c6f366b92e5e3,,,2022-07-28_09h05.13.677,FaceAttractiveness,2022.2.2,MacIntel,60.0024001,62dfe6a3e28b448cf3e9d0db,05ve24g3gbgc,,,,,,,,
,,,,,96.7079,Extremely  Attractive,Extremely Unattractive,normal,CFD_AF_237_223_N.png,RCHEEK,2,55.37181713,0.6128,0.039760561,-0.404000289,1,0,0,NextBu,0.926521198,51,0,51,0,1,60c6b3ea487c6f366b92e5e3,,,2022-07-28_09h05.13.677,FaceAttractiveness,2022.2.2,MacIntel,60.0024001,62dfe6a3e28b448cf3e9d0db,05ve24g3gbgc,,,,,,,,
,,,,,98.5235,Extremely  Attractive,Extremely Unattractive,normal,CFD_AF_231_357_N.png,LCHEEK,2,59.25853588,0.6992,0.035677083,-0.41568287,1,0,0,NextBu,0.501828824,52,0,52,0,1,60c6b3ea487c6f366b92e5e3,,,2022-07-28_09h05.13.677,FaceAttractiveness,2022.2.2,MacIntel,60.0024001,62dfe6a3e28b448cf3e9d0db,05ve24g3gbgc,,,,,,,,
,,,,,99.9568,Extremely  Attractive,Extremely Unattractive,normal,136_M_M_N_A.png,LIP,2,62.12203414,0.725,0.042050058,-0.398198785,1,0,0,NextBu,0.966373754,53,0,53,0,1,60c6b3ea487c6f366b92e5e3,,,2022-07-28_09h05.13.677,FaceAttractiveness,2022.2.2,MacIntel,60.0024001,62dfe6a3e28b448cf3e9d0db,05ve24g3gbgc,,,,,,,,
,,,,,101.8911,Extremely  Attractive,Extremely Unattractive,normal,087_M_M_N_A.png,NASALTIP,2,46.12774884,0.4751,-0.036465567,-0.372319878,1,0,0,NextBu,0.544303594,54,0,54,0,1,60c6b3ea487c6f366b92e5e3,,,2022-07-28_09h05.13.677,FaceAttractiveness,2022.2.2,MacIntel,60.0024001,62dfe6a3e28b448cf3e9d0db,05ve24g3gbgc,,,,,,,,
,,,,,103.1904,Extremely  Attractive,Extremely Unattractive,normal,035_M_F_N_A.png,LCHEEK,2,37.354239,0.6736,-0.02124566,-0.371383102,1,0,0,NextBu,0.553010159,55,0,55,0,1,60c6b3ea487c6f366b92e5e3,,,2022-07-28_09h05.13.677,FaceAttractiveness,2022.2.2,MacIntel,60.0024001,62dfe6a3e28b448cf3e9d0db,05ve24g3gbgc,,,,,,,,
,,,,,104.6401,Extremely  Attractive,Extremely Unattractive,normal,006_M_F_N_A.png,RCHEEK,2,58.41724537,0.7958,0.031221065,-0.379835793,1,0,0,NextBu,0.663234375,56,0,56,0,1,60c6b3ea487c6f366b92e5e3,,,2022-07-28_09h05.13.677,FaceAttractiveness,2022.2.2,MacIntel,60.0024001,62dfe6a3e28b448cf3e9d0db,05ve24g3gbgc,,,,,,,,
,,,,,106.3401,Extremely  Attractive,Extremely Unattractive,normal,CFD_WM_212_097_N.png,RCHEEK,3,43.6968316,0.6488,-0.021176939,-0.395529514,1,0,0,NextBu,0.602440446,57,0,57,0,1,60c6b3ea487c6f366b92e5e3,,,2022-07-28_09h05.13.677,FaceAttractiveness,2022.2.2,MacIntel,60.0024001,62dfe6a3e28b448cf3e9d0db,05ve24g3gbgc,,,,,,,,
,,,,,107.8564,Extremely  Attractive,Extremely Unattractive,normal,CFD_WF_250_167_N.png,LIP,3,57.1911169,1.0782,0.04109158,-0.418218316,1,0,0,NextBu,0.640133746,58,0,58,0,1,60c6b3ea487c6f366b92e5e3,,,2022-07-28_09h05.13.677,FaceAttractiveness,2022.2.2,MacIntel,60.0024001,62dfe6a3e28b448cf3e9d0db,05ve24g3gbgc,,,,,,,,
,,,,,109.9394,Extremely  Attractive,Extremely Unattractive,normal,CFD_WF_200_099_N.png,LCHEEK,3,34.50303819,1.0838,-0.012850839,-0.44463614,1,0,0,NextBu,0.927343169,59,0,59,0,1,60c6b3ea487c6f366b92e5e3,,,2022-07-28_09h05.13.677,FaceAttractiveness,2022.2.2,MacIntel,60.0024001,62dfe6a3e28b448cf3e9d0db,05ve24g3gbgc,,,,,,,,
,,,,,112.2244,Extremely  Attractive,Extremely Unattractive,normal,CFD_WF_002_004_N.png,LCHEEK,3,46.60228588,0.8224,0.004050926,-0.398661748,1,0,0,NextBu,0.75777138,60,0,60,0,1,60c6b3ea487c6f366b92e5e3,,,2022-07-28_09h05.13.677,FaceAttractiveness,2022.2.2,MacIntel,60.0024001,62dfe6a3e28b448cf3e9d0db,05ve24g3gbgc,,,,,,,,
,,,,,114.008,Extremely  Attractive,Extremely Unattractive,normal,CFD_LM_203_026_N.png,NASALTIP,3,59.90342882,0.6378,0.031593605,-0.373256655,1,0,0,NextBu,0.600958551,61,0,61,0,1,60c6b3ea487c6f366b92e5e3,,,2022-07-28_09h05.13.677,FaceAttractiveness,2022.2.2,MacIntel,60.0024001,62dfe6a3e28b448cf3e9d0db,05ve24g3gbgc,,,,,,,,
,,,,,115.4579,Extremely  Attractive,Extremely Unattractive,normal,CFD_LM_201_057_N.png,NASALTIP,3,56.40516493,0.8083,0.012684462,-0.376493779,1,0,0,NextBu,0.910404705,62,0,62,0,1,60c6b3ea487c6f366b92e5e3,,,2022-07-28_09h05.13.677,FaceAttractiveness,2022.2.2,MacIntel,60.0024001,62dfe6a3e28b448cf3e9d0db,05ve24g3gbgc,,,,,,,,
,,,,,117.3912,Extremely  Attractive,Extremely Unattractive,normal,CFD_LF_224_176_N.png,LIP,3,42.81684028,1.0897,0.010597512,-0.393677662,1,0,0,NextBu,0.844486315,63,0,63,0,1,60c6b3ea487c6f366b92e5e3,,,2022-07-28_09h05.13.677,FaceAttractiveness,2022.2.2,MacIntel,60.0024001,62dfe6a3e28b448cf3e9d0db,05ve24g3gbgc,,,,,,,,
,,,,,119.5572,Extremely  Attractive,Extremely Unattractive,normal,CFD_BM_234_172_N.png,LCHEEK,3,41.16174769,0.6566,-0.020887587,-0.382664207,1,0,0,NextBu,0.87424945,64,0,64,0,1,60c6b3ea487c6f366b92e5e3,,,2022-07-28_09h05.13.677,FaceAttractiveness,2022.2.2,MacIntel,60.0024001,62dfe6a3e28b448cf3e9d0db,05ve24g3gbgc,,,,,,,,
,,,,,121.3079,Extremely  Attractive,Extremely Unattractive,normal,CFD_BM_213_134_N.png,FOREHEAD,3,44.59201389,0.7071,-0.013675492,-0.397757523,1,0,0,NextBu,0.987875579,65,0,65,0,1,60c6b3ea487c6f366b92e5e3,,,2022-07-28_09h05.13.677,FaceAttractiveness,2022.2.2,MacIntel,60.0024001,62dfe6a3e28b448cf3e9d0db,05ve24g3gbgc,,,,,,,,
,,,,,123.2242,Extremely  Attractive,Extremely Unattractive,normal,CFD_BF_224_002_N.png,RCHEEK,3,59.28240741,0.4889,0.022981771,-0.392903646,1,0,0,NextBu,0.690018186,66,0,66,0,1,60c6b3ea487c6f366b92e5e3,,,2022-07-28_09h05.13.677,FaceAttractiveness,2022.2.2,MacIntel,60.0024001,62dfe6a3e28b448cf3e9d0db,05ve24g3gbgc,,,,,,,,
,,,,,124.6735,Extremely  Attractive,Extremely Unattractive,normal,CFD_BF_214_308_N.png,LIP,3,44.55367477,0.7245,-0.035579427,-0.366749855,1,0,0,NextBu,0.621061483,67,0,67,0,1,60c6b3ea487c6f366b92e5e3,,,2022-07-28_09h05.13.677,FaceAttractiveness,2022.2.2,MacIntel,60.0024001,62dfe6a3e28b448cf3e9d0db,05ve24g3gbgc,,,,,,,,
,,,,,126.3739,Extremely  Attractive,Extremely Unattractive,normal,CFD_AM_233_236_N.png,FOREHEAD,3,39.32327836,0.5896,-0.030743634,-0.385087529,1,0,0,NextBu,0.543103295,68,0,68,0,1,60c6b3ea487c6f366b92e5e3,,,2022-07-28_09h05.13.677,FaceAttractiveness,2022.2.2,MacIntel,60.0024001,62dfe6a3e28b448cf3e9d0db,05ve24g3gbgc,,,,,,,,
,,,,,127.7233,Extremely  Attractive,Extremely Unattractive,normal,CFD_AF_245_143_N.png,RCHEEK,3,51.19140625,0.564,0.009487124,-0.404484954,1,0,0,NextBu,0.654391253,69,0,69,0,1,60c6b3ea487c6f366b92e5e3,,,2022-07-28_09h05.13.677,FaceAttractiveness,2022.2.2,MacIntel,60.0024001,62dfe6a3e28b448cf3e9d0db,05ve24g3gbgc,,,,,,,,
,,,,,129.2069,Extremely  Attractive,Extremely Unattractive,normal,CFD_AF_237_223_N.png,FOREHEAD,3,30.85467303,0.5159,-0.059472656,-0.41568287,1,0,0,NextBu,0.722207019,70,0,70,0,1,60c6b3ea487c6f366b92e5e3,,,2022-07-28_09h05.13.677,FaceAttractiveness,2022.2.2,MacIntel,60.0024001,62dfe6a3e28b448cf3e9d0db,05ve24g3gbgc,,,,,,,,
,,,,,130.7751,Extremely  Attractive,Extremely Unattractive,normal,CFD_AF_231_357_N.png,NASALTIP,3,57.62044271,0.9462,0.05,-0.370666956,1,0,0,NextBu,0.508828356,71,0,71,0,1,60c6b3ea487c6f366b92e5e3,,,2022-07-28_09h05.13.677,FaceAttractiveness,2022.2.2,MacIntel,60.0024001,62dfe6a3e28b448cf3e9d0db,05ve24g3gbgc,,,,,,,,
,,,,,132.4251,Extremely  Attractive,Extremely Unattractive,normal,136_M_M_N_A.png,LCHEEK,3,59.98046875,1.5565,0.049594907,-0.399468316,1,0,0,NextBu,0.662532339,72,0,72,0,1,60c6b3ea487c6f366b92e5e3,,,2022-07-28_09h05.13.677,FaceAttractiveness,2022.2.2,MacIntel,60.0024001,62dfe6a3e28b448cf3e9d0db,05ve24g3gbgc,,,,,,,,
,,,,,134.9418,Extremely  Attractive,Extremely Unattractive,normal,087_M_M_N_A.png,LCHEEK,3,63.31090856,0.6813,0.065585214,-0.385691551,1,0,0,NextBu,0.858323269,73,0,73,0,1,60c6b3ea487c6f366b92e5e3,,,2022-07-28_09h05.13.677,FaceAttractiveness,2022.2.2,MacIntel,60.0024001,62dfe6a3e28b448cf3e9d0db,05ve24g3gbgc,,,,,,,,
,,,,,136.7249,Extremely  Attractive,Extremely Unattractive,normal,035_M_F_N_A.png,LIP,3,66.85944734,0.5891,0.050390625,-0.379358362,1,0,0,NextBu,0.506310755,74,0,74,0,1,60c6b3ea487c6f366b92e5e3,,,2022-07-28_09h05.13.677,FaceAttractiveness,2022.2.2,MacIntel,60.0024001,62dfe6a3e28b448cf3e9d0db,05ve24g3gbgc,,,,,,,,
,,,,,138.0585,Extremely  Attractive,Extremely Unattractive,normal,006_M_F_N_A.png,LCHEEK,3,52.8088831,0.6783,0.003606047,-0.379998553,1,0,0,NextBu,0.567201113,75,0,75,0,1,60c6b3ea487c6f366b92e5e3,,,2022-07-28_09h05.13.677,FaceAttractiveness,2022.2.2,MacIntel,60.0024001,62dfe6a3e28b448cf3e9d0db,05ve24g3gbgc,,,,,,,,
,,,,,139.5404,Extremely  Attractive,Extremely Unattractive,normal,CFD_WM_212_097_N.png,LCHEEK,4,38.57096354,0.665,-0.030334925,-0.384071181,1,0,0,NextBu,0.567376734,76,0,76,0,1,60c6b3ea487c6f366b92e5e3,,,2022-07-28_09h05.13.677,FaceAttractiveness,2022.2.2,MacIntel,60.0024001,62dfe6a3e28b448cf3e9d0db,05ve24g3gbgc,,,,,,,,
,,,,,141.0078,Extremely  Attractive,Extremely Unattractive,normal,CFD_WF_250_167_N.png,LCHEEK,4,61.67570891,0.6576,0.045363137,-0.382385706,1,0,0,NextBu,0.665505787,77,0,77,0,1,60c6b3ea487c6f366b92e5e3,,,2022-07-28_09h05.13.677,FaceAttractiveness,2022.2.2,MacIntel,60.0024001,62dfe6a3e28b448cf3e9d0db,05ve24g3gbgc,,,,,,,,
,,,,,142.5913,Extremely  Attractive,Extremely Unattractive,normal,CFD_WF_200_099_N.png,RCHEEK,4,45.13418692,0.588,-0.002795862,-0.393977865,1,0,0,NextBu,0.916611829,78,0,78,0,1,60c6b3ea487c6f366b92e5e3,,,2022-07-28_09h05.13.677,FaceAttractiveness,2022.2.2,MacIntel,60.0024001,62dfe6a3e28b448cf3e9d0db,05ve24g3gbgc,,,,,,,,
,,,,,144.3414,Extremely  Attractive,Extremely Unattractive,normal,CFD_WF_002_004_N.png,RCHEEK,4,67.2229456,0.4773,0.010821759,-0.3872432,1,0,0,NextBu,0.807733185,79,0,79,0,1,60c6b3ea487c6f366b92e5e3,,,2022-07-28_09h05.13.677,FaceAttractiveness,2022.2.2,MacIntel,60.0024001,62dfe6a3e28b448cf3e9d0db,05ve24g3gbgc,,,,,,,,
,,,,,145.9578,Extremely  Attractive,Extremely Unattractive,normal,CFD_LM_203_026_N.png,LIP,4,45.16420718,1.1242,-0.008195891,-0.391890914,1,0,0,NextBu,0.670426555,80,0,80,0,1,60c6b3ea487c6f366b92e5e3,,,2022-07-28_09h05.13.677,FaceAttractiveness,2022.2.2,MacIntel,60.0024001,62dfe6a3e28b448cf3e9d0db,05ve24g3gbgc,,,,,,,,
,,,,,148.1064,Extremely  Attractive,Extremely Unattractive,normal,CFD_LM_201_057_N.png,FOREHEAD,4,35.95196759,0.917,-0.007056568,-0.403396267,1,0,0,NextBu,0.780059831,81,0,81,0,1,60c6b3ea487c6f366b92e5e3,,,2022-07-28_09h05.13.677,FaceAttractiveness,2022.2.2,MacIntel,60.0024001,62dfe6a3e28b448cf3e9d0db,05ve24g3gbgc,,,,,,,,
,,,,,150.0572,Extremely  Attractive,Extremely Unattractive,normal,CFD_LF_224_176_N.png,FOREHEAD,4,59.6625434,1.008,-0.029929832,-0.391033709,1,0,0,NextBu,0.741653898,82,0,82,0,1,60c6b3ea487c6f366b92e5e3,,,2022-07-28_09h05.13.677,FaceAttractiveness,2022.2.2,MacIntel,60.0024001,62dfe6a3e28b448cf3e9d0db,05ve24g3gbgc,,,,,,,,
,,,,,152.0746,Extremely  Attractive,Extremely Unattractive,normal,CFD_BM_234_172_N.png,FOREHEAD,4,65.92013889,0.7075,0.012514468,-0.413632089,1,0,0,NextBu,0.733630449,83,0,83,0,1,60c6b3ea487c6f366b92e5e3,,,2022-07-28_09h05.13.677,FaceAttractiveness,2022.2.2,MacIntel,60.0024001,62dfe6a3e28b448cf3e9d0db,05ve24g3gbgc,,,,,,,,
,,,,,153.7913,Extremely  Attractive,Extremely Unattractive,normal,CFD_BM_213_134_N.png,RCHEEK,4,42.93836806,1.064,-0.040549045,-0.393836806,1,0,0,NextBu,0.896096455,84,0,84,0,1,60c6b3ea487c6f366b92e5e3,,,2022-07-28_09h05.13.677,FaceAttractiveness,2022.2.2,MacIntel,60.0024001,62dfe6a3e28b448cf3e9d0db,05ve24g3gbgc,,,,,,,,
,,,,,155.9578,Extremely  Attractive,Extremely Unattractive,normal,CFD_BF_224_002_N.png,FOREHEAD,4,42.28045428,0.7456,-0.017965133,-0.387655527,1,0,0,NextBu,0.74369751,85,0,85,0,1,60c6b3ea487c6f366b92e5e3,,,2022-07-28_09h05.13.677,FaceAttractiveness,2022.2.2,MacIntel,60.0024001,62dfe6a3e28b448cf3e9d0db,05ve24g3gbgc,,,,,,,,
,,,,,157.6575,Extremely  Attractive,Extremely Unattractive,normal,CFD_BF_214_308_N.png,LCHEEK,4,65.46947338,0.6916,0.05234375,-0.377256944,1,0,0,NextBu,0.555094341,86,0,86,0,1,60c6b3ea487c6f366b92e5e3,,,2022-07-28_09h05.13.677,FaceAttractiveness,2022.2.2,MacIntel,60.0024001,62dfe6a3e28b448cf3e9d0db,05ve24g3gbgc,,,,,,,,
,,,,,159.3917,Extremely  Attractive,Extremely Unattractive,normal,CFD_AM_233_236_N.png,NASALTIP,4,45.69769965,0.7408,-0.02895327,-0.383720341,1,0,0,NextBu,0.959064218,87,0,87,0,1,60c6b3ea487c6f366b92e5e3,,,2022-07-28_09h05.13.677,FaceAttractiveness,2022.2.2,MacIntel,60.0024001,62dfe6a3e28b448cf3e9d0db,05ve24g3gbgc,,,,,,,,
,,,,,161.4076,Extremely  Attractive,Extremely Unattractive,normal,CFD_AF_245_143_N.png,LIP,4,61.90067998,0.8296,0.034053096,-0.390031829,1,0,0,NextBu,0.668646433,88,0,88,0,1,60c6b3ea487c6f366b92e5e3,,,2022-07-28_09h05.13.677,FaceAttractiveness,2022.2.2,MacIntel,60.0024001,62dfe6a3e28b448cf3e9d0db,05ve24g3gbgc,,,,,,,,
,,,,,163.0906,Extremely  Attractive,Extremely Unattractive,normal,CFD_AF_237_223_N.png,LIP,4,45.5114294,0.7151,-0.048509838,-0.407989728,1,0,0,NextBu,0.645030318,89,0,89,0,1,60c6b3ea487c6f366b92e5e3,,,2022-07-28_09h05.13.677,FaceAttractiveness,2022.2.2,MacIntel,60.0024001,62dfe6a3e28b448cf3e9d0db,05ve24g3gbgc,,,,,,,,
,,,,,164.6914,Extremely  Attractive,Extremely Unattractive,normal,CFD_AF_231_357_N.png,FOREHEAD,4,56.0651765,0.7064,-0.000350839,-0.39312066,1,0,0,NextBu,0.683595017,90,0,90,0,1,60c6b3ea487c6f366b92e5e3,,,2022-07-28_09h05.13.677,FaceAttractiveness,2022.2.2,MacIntel,60.0024001,62dfe6a3e28b448cf3e9d0db,05ve24g3gbgc,,,,,,,,
,,,,,166.3083,Extremely  Attractive,Extremely Unattractive,normal,136_M_M_N_A.png,NASALTIP,4,42.72135417,0.6735,-0.01479673,-0.392071759,1,0,0,NextBu,0.586411191,91,0,91,0,1,60c6b3ea487c6f366b92e5e3,,,2022-07-28_09h05.13.677,FaceAttractiveness,2022.2.2,MacIntel,60.0024001,62dfe6a3e28b448cf3e9d0db,05ve24g3gbgc,,,,,,,,
,,,,,167.8074,Extremely  Attractive,Extremely Unattractive,normal,087_M_M_N_A.png,LIP,4,65.62644676,0.6962,0.057837818,-0.390429688,1,0,0,NextBu,0.720466555,92,0,92,0,1,60c6b3ea487c6f366b92e5e3,,,2022-07-28_09h05.13.677,FaceAttractiveness,2022.2.2,MacIntel,60.0024001,62dfe6a3e28b448cf3e9d0db,05ve24g3gbgc,,,,,,,,
,,,,,169.4573,Extremely  Attractive,Extremely Unattractive,normal,035_M_F_N_A.png,NASALTIP,4,65.6958912,0.7237,0.054123264,-0.395348669,1,0,0,NextBu,0.54857053,93,0,93,0,1,60c6b3ea487c6f366b92e5e3,,,2022-07-28_09h05.13.677,FaceAttractiveness,2022.2.2,MacIntel,60.0024001,62dfe6a3e28b448cf3e9d0db,05ve24g3gbgc,,,,,,,,
,,,,,170.9411,Extremely  Attractive,Extremely Unattractive,normal,006_M_F_N_A.png,FOREHEAD,4,43.2458044,0.7083,-0.021252894,-0.375868056,1,0,0,NextBu,0.877777735,94,0,94,0,1,60c6b3ea487c6f366b92e5e3,,,2022-07-28_09h05.13.677,FaceAttractiveness,2022.2.2,MacIntel,60.0024001,62dfe6a3e28b448cf3e9d0db,05ve24g3gbgc,,,,,,,,
,,,,,,,,,,,,,,,,,,,,,,,,,,60c6b3ea487c6f366b92e5e3,,,2022-07-28_09h05.13.677,FaceAttractiveness,2022.2.2,MacIntel,60.0024001,62dfe6a3e28b448cf3e9d0db,05ve24g3gbgc,0,0,0,0,1,Attractiveness,Extremely  Attractive,Extremely Unattractive
,,,,,,,,,,,,,,,,,,,,,,,,,,60c6b3ea487c6f366b92e5e3,,,2022-07-28_09h05.13.677,FaceAttractiveness,2022.2.2,MacIntel,60.0024001,62dfe6a3e28b448cf3e9d0db,05ve24g3gbgc,,,,,,,,
