mouse.x,mouse.y,mouse.leftButton,mouse.midButton,mouse.rightButton,onsetTime,leftText,rightText,sliderDirection,face,lesion,block,slider.response,slider.rt,mouse_5.x,mouse_5.y,mouse_5.leftButton,mouse_5.midButton,mouse_5.rightButton,mouse_5.clicked_name,ITI,originalFaceTrials.thisRepN,originalFaceTrials.thisTrialN,originalFaceTrials.thisN,originalFaceTrials.thisIndex,originalFaceTrials.ran,Name,Gender,Age,date,expName,psychopyVersion,OS,frameRate,participant,study_id,session,RatingBlockOrder.thisRepN,RatingBlockOrder.thisTrialN,RatingBlockOrder.thisN,RatingBlockOrder.thisIndex,RatingBlockOrder.ran,Task,LeftLabel,RightLabel
-0.032447193,-0.129676649,1,0,0,0.9992,Extremely Unattractive,Extremely  Attractive,mirrored,CFD_WM_212_097_N.png,NASALTIP,0,53.73372396,1.3552,-0.007989728,-0.364471209,1,0,0,NextBu,0.908307003,0,0,0,0,1,,,,2022-07-28_09h13.25.873,FaceAttractiveness,2022.2.2,MacIntel,60.0024001,60c6b3ea487c6f366b92e5e3,62dfe6a3e28b448cf3e9d0db,0e26qhk55m18,,,,,,,,
,,,,,3.7646,Extremely Unattractive,Extremely  Attractive,mirrored,CFD_WF_250_167_N.png,LCHEEK,0,49.07588252,0.9223,-0.016131366,-0.381456163,1,0,0,NextBu,0.866473708,1,0,1,0,1,,,,2022-07-28_09h13.25.873,FaceAttractiveness,2022.2.2,MacIntel,60.0024001,60c6b3ea487c6f366b92e5e3,62dfe6a3e28b448cf3e9d0db,0e26qhk55m18,,,,,,,,
,,,,,5.8808,Extremely Unattractive,Extremely  Attractive,mirrored,CFD_WF_200_099_N.png,RCHEEK,0,56.73574942,0.877,0.008199508,-0.352564381,1,0,0,NextBu,0.511870648,2,0,2,0,1,,,,2022-07-28_09h13.25.873,FaceAttractiveness,2022.2.2,MacIntel,60.0024001,60c6b3ea487c6f366b92e5e3,62dfe6a3e28b448cf3e9d0db,0e26qhk55m18,,,,,,,,
,,,,,7.4973,Extremely Unattractive,Extremely  Attractive,mirrored,CFD_WF_002_004_N.png,LCHEEK,0,45.99898727,0.7973,-0.047764757,-0.373281973,1,0,0,NextBu,0.689711503,3,0,3,0,1,,,,2022-07-28_09h13.25.873,FaceAttractiveness,2022.2.2,MacIntel,60.0024001,60c6b3ea487c6f366b92e5e3,62dfe6a3e28b448cf3e9d0db,0e26qhk55m18,,,,,,,,
,,,,,9.2155,Extremely Unattractive,Extremely  Attractive,mirrored,CFD_LM_203_026_N.png,RCHEEK,0,59.07226563,0.6587,0.021079282,-0.374442998,1,0,0,NextBu,0.578387696,4,0,4,0,1,,,,2022-07-28_09h13.25.873,FaceAttractiveness,2022.2.2,MacIntel,60.0024001,60c6b3ea487c6f366b92e5e3,62dfe6a3e28b448cf3e9d0db,0e26qhk55m18,,,,,,,,
,,,,,10.6823,Extremely Unattractive,Extremely  Attractive,mirrored,CFD_LM_201_057_N.png,LCHEEK,0,48.48596644,0.6562,0.016514757,-0.394245515,1,0,0,NextBu,0.754131424,5,0,5,0,1,,,,2022-07-28_09h13.25.873,FaceAttractiveness,2022.2.2,MacIntel,60.0024001,60c6b3ea487c6f366b92e5e3,62dfe6a3e28b448cf3e9d0db,0e26qhk55m18,,,,,,,,
,,,,,12.3309,Extremely Unattractive,Extremely  Attractive,mirrored,CFD_LF_224_176_N.png,LCHEEK,0,66.92165799,0.5077,0.060206887,-0.362641059,1,0,0,NextBu,0.630691344,6,0,6,0,1,,,,2022-07-28_09h13.25.873,FaceAttractiveness,2022.2.2,MacIntel,60.0024001,60c6b3ea487c6f366b92e5e3,62dfe6a3e28b448cf3e9d0db,0e26qhk55m18,,,,,,,,
,,,,,13.7658,Extremely Unattractive,Extremely  Attractive,mirrored,CFD_BM_234_172_N.png,LCHEEK,0,36.52307581,0.6392,-0.016865596,-0.398614728,1,0,0,NextBu,0.503045902,7,0,7,0,1,,,,2022-07-28_09h13.25.873,FaceAttractiveness,2022.2.2,MacIntel,60.0024001,60c6b3ea487c6f366b92e5e3,62dfe6a3e28b448cf3e9d0db,0e26qhk55m18,,,,,,,,
,,,,,15.1317,Extremely Unattractive,Extremely  Attractive,mirrored,CFD_BM_213_134_N.png,RCHEEK,0,68.75072338,0.682,0.012094907,-0.372113715,1,0,0,NextBu,0.576044941,8,0,8,0,1,,,,2022-07-28_09h13.25.873,FaceAttractiveness,2022.2.2,MacIntel,60.0024001,60c6b3ea487c6f366b92e5e3,62dfe6a3e28b448cf3e9d0db,0e26qhk55m18,,,,,,,,
,,,,,16.5972,Extremely Unattractive,Extremely  Attractive,mirrored,CFD_BF_224_002_N.png,LCHEEK,0,44.28855613,0.5729,-0.023506221,-0.38338397,1,0,0,NextBu,0.932041107,9,0,9,0,1,,,,2022-07-28_09h13.25.873,FaceAttractiveness,2022.2.2,MacIntel,60.0024001,60c6b3ea487c6f366b92e5e3,62dfe6a3e28b448cf3e9d0db,0e26qhk55m18,,,,,,,,
,,,,,18.3321,Extremely Unattractive,Extremely  Attractive,mirrored,CFD_BF_214_308_N.png,FOREHEAD,0,66.28942419,0.7287,0.010633681,-0.399641927,1,0,0,NextBu,0.958910827,10,0,10,0,1,,,,2022-07-28_09h13.25.873,FaceAttractiveness,2022.2.2,MacIntel,60.0024001,60c6b3ea487c6f366b92e5e3,62dfe6a3e28b448cf3e9d0db,0e26qhk55m18,,,,,,,,
,,,,,20.2135,Extremely Unattractive,Extremely  Attractive,mirrored,CFD_AM_233_236_N.png,LCHEEK,0,46.25578704,0.7345,0.011910446,-0.405172164,1,0,0,NextBu,0.861282203,11,0,11,0,1,,,,2022-07-28_09h13.25.873,FaceAttractiveness,2022.2.2,MacIntel,60.0024001,60c6b3ea487c6f366b92e5e3,62dfe6a3e28b448cf3e9d0db,0e26qhk55m18,,,,,,,,
,,,,,22.0813,Extremely Unattractive,Extremely  Attractive,mirrored,CFD_AF_245_143_N.png,LIP,0,67.0808015,0.7272,0.036212384,-0.401728877,1,0,0,NextBu,0.862426455,12,0,12,0,1,,,,2022-07-28_09h13.25.873,FaceAttractiveness,2022.2.2,MacIntel,60.0024001,60c6b3ea487c6f366b92e5e3,62dfe6a3e28b448cf3e9d0db,0e26qhk55m18,,,,,,,,
,,,,,23.9317,Extremely Unattractive,Extremely  Attractive,mirrored,CFD_AF_237_223_N.png,LCHEEK,0,69.43323206,0.7231,0.020996094,-0.417122396,1,0,0,NextBu,0.797879136,13,0,13,0,1,,,,2022-07-28_09h13.25.873,FaceAttractiveness,2022.2.2,MacIntel,60.0024001,60c6b3ea487c6f366b92e5e3,62dfe6a3e28b448cf3e9d0db,0e26qhk55m18,,,,,,,,
,,,,,25.6974,Extremely Unattractive,Extremely  Attractive,mirrored,CFD_AF_231_357_N.png,LCHEEK,0,66.13859954,0.5552,0.030240885,-0.379358362,1,0,0,NextBu,0.547345711,14,0,14,0,1,,,,2022-07-28_09h13.25.873,FaceAttractiveness,2022.2.2,MacIntel,60.0024001,60c6b3ea487c6f366b92e5e3,62dfe6a3e28b448cf3e9d0db,0e26qhk55m18,,,,,,,,
,,,,,27.0648,Extremely Unattractive,Extremely  Attractive,mirrored,136_M_M_N_A.png,FOREHEAD,0,59.41225405,0.8147,0.025759549,-0.427958623,1,0,0,NextBu,0.784149353,15,0,15,0,1,,,,2022-07-28_09h13.25.873,FaceAttractiveness,2022.2.2,MacIntel,60.0024001,60c6b3ea487c6f366b92e5e3,62dfe6a3e28b448cf3e9d0db,0e26qhk55m18,,,,,,,,
,,,,,28.8807,Extremely Unattractive,Extremely  Attractive,mirrored,087_M_M_N_A.png,RCHEEK,0,62.52531829,0.658,0.035593895,-0.397316262,1,0,0,NextBu,0.841889569,16,0,16,0,1,,,,2022-07-28_09h13.25.873,FaceAttractiveness,2022.2.2,MacIntel,60.0024001,60c6b3ea487c6f366b92e5e3,62dfe6a3e28b448cf3e9d0db,0e26qhk55m18,,,,,,,,
,,,,,30.5657,Extremely Unattractive,Extremely  Attractive,mirrored,035_M_F_N_A.png,LIP,0,46.18164063,0.6051,-0.008311632,-0.369809751,1,0,0,NextBu,0.839529847,17,0,17,0,1,,,,2022-07-28_09h13.25.873,FaceAttractiveness,2022.2.2,MacIntel,60.0024001,60c6b3ea487c6f366b92e5e3,62dfe6a3e28b448cf3e9d0db,0e26qhk55m18,,,,,,,,
,,,,,32.1983,Extremely Unattractive,Extremely  Attractive,mirrored,006_M_F_N_A.png,NASALTIP,0,58.43135127,0.8248,0.017151331,-0.398546007,1,0,0,NextBu,0.743794411,18,0,18,0,1,,,,2022-07-28_09h13.25.873,FaceAttractiveness,2022.2.2,MacIntel,60.0024001,60c6b3ea487c6f366b92e5e3,62dfe6a3e28b448cf3e9d0db,0e26qhk55m18,,,,,,,,
,,,,,34.1144,Extremely Unattractive,Extremely  Attractive,mirrored,CFD_WM_212_097_N.png,LCHEEK,1,58.08051215,0.6286,0.034237558,-0.370905671,1,0,0,NextBu,0.545365618,19,0,19,0,1,,,,2022-07-28_09h13.25.873,FaceAttractiveness,2022.2.2,MacIntel,60.0024001,60c6b3ea487c6f366b92e5e3,62dfe6a3e28b448cf3e9d0db,0e26qhk55m18,,,,,,,,
,,,,,35.5656,Extremely Unattractive,Extremely  Attractive,mirrored,CFD_WF_250_167_N.png,NASALTIP,1,39.3464265,0.6473,-0.038751447,-0.361270255,1,0,0,NextBu,0.754585321,20,0,20,0,1,,,,2022-07-28_09h13.25.873,FaceAttractiveness,2022.2.2,MacIntel,60.0024001,60c6b3ea487c6f366b92e5e3,62dfe6a3e28b448cf3e9d0db,0e26qhk55m18,,,,,,,,
,,,,,37.1812,Extremely Unattractive,Extremely  Attractive,mirrored,CFD_WF_200_099_N.png,LIP,1,61.22685185,0.7069,0.041796875,-0.387962963,1,0,0,NextBu,0.94541904,21,0,21,0,1,,,,2022-07-28_09h13.25.873,FaceAttractiveness,2022.2.2,MacIntel,60.0024001,60c6b3ea487c6f366b92e5e3,62dfe6a3e28b448cf3e9d0db,0e26qhk55m18,,,,,,,,
,,,,,39.032,Extremely Unattractive,Extremely  Attractive,mirrored,CFD_WF_002_004_N.png,FOREHEAD,1,58.53768808,0.8086,0.049077691,-0.404072627,1,0,0,NextBu,0.995700038,22,0,22,0,1,,,,2022-07-28_09h13.25.873,FaceAttractiveness,2022.2.2,MacIntel,60.0024001,60c6b3ea487c6f366b92e5e3,62dfe6a3e28b448cf3e9d0db,0e26qhk55m18,,,,,,,,
,,,,,41.1977,Extremely Unattractive,Extremely  Attractive,mirrored,CFD_LM_203_026_N.png,LCHEEK,1,64.03935185,0.8225,0.092277922,-0.37937283,1,0,0,NextBu,0.548840642,23,0,23,0,1,,,,2022-07-28_09h13.25.873,FaceAttractiveness,2022.2.2,MacIntel,60.0024001,60c6b3ea487c6f366b92e5e3,62dfe6a3e28b448cf3e9d0db,0e26qhk55m18,,,,,,,,
,,,,,43.2311,Extremely Unattractive,Extremely  Attractive,mirrored,CFD_LM_201_057_N.png,NASALTIP,1,46.82002315,0.8077,-0.017031973,-0.384982639,1,0,0,NextBu,0.886232622,24,0,24,0,1,,,,2022-07-28_09h13.25.873,FaceAttractiveness,2022.2.2,MacIntel,60.0024001,60c6b3ea487c6f366b92e5e3,62dfe6a3e28b448cf3e9d0db,0e26qhk55m18,,,,,,,,
,,,,,45.1985,Extremely Unattractive,Extremely  Attractive,mirrored,CFD_LF_224_176_N.png,NASALTIP,1,62.49023438,0.7283,-0.018674045,-0.406929977,1,0,0,NextBu,0.553404318,25,0,25,0,1,,,,2022-07-28_09h13.25.873,FaceAttractiveness,2022.2.2,MacIntel,60.0024001,60c6b3ea487c6f366b92e5e3,62dfe6a3e28b448cf3e9d0db,0e26qhk55m18,,,,,,,,
,,,,,46.6823,Extremely Unattractive,Extremely  Attractive,mirrored,CFD_BM_234_172_N.png,NASALTIP,1,46.25289352,0.9291,-0.008188657,-0.404318576,1,0,0,NextBu,0.56285882,26,0,26,0,1,,,,2022-07-28_09h13.25.873,FaceAttractiveness,2022.2.2,MacIntel,60.0024001,60c6b3ea487c6f366b92e5e3,62dfe6a3e28b448cf3e9d0db,0e26qhk55m18,,,,,,,,
,,,,,48.3995,Extremely Unattractive,Extremely  Attractive,mirrored,CFD_BM_213_134_N.png,LIP,1,68.99775752,0.6754,0.053779659,-0.3908818,1,0,0,NextBu,0.531354139,27,0,27,0,1,,,,2022-07-28_09h13.25.873,FaceAttractiveness,2022.2.2,MacIntel,60.0024001,60c6b3ea487c6f366b92e5e3,62dfe6a3e28b448cf3e9d0db,0e26qhk55m18,,,,,,,,
,,,,,49.8478,Extremely Unattractive,Extremely  Attractive,mirrored,CFD_BF_224_002_N.png,FOREHEAD,1,42.00339988,0.7244,-0.065133102,-0.374540654,1,0,0,NextBu,0.571102087,28,0,28,0,1,,,,2022-07-28_09h13.25.873,FaceAttractiveness,2022.2.2,MacIntel,60.0024001,60c6b3ea487c6f366b92e5e3,62dfe6a3e28b448cf3e9d0db,0e26qhk55m18,,,,,,,,
,,,,,51.3822,Extremely Unattractive,Extremely  Attractive,mirrored,CFD_BF_214_308_N.png,RCHEEK,1,63.27437789,0.7903,-0.011646412,-0.381159578,1,0,0,NextBu,0.858524592,29,0,29,0,1,,,,2022-07-28_09h13.25.873,FaceAttractiveness,2022.2.2,MacIntel,60.0024001,60c6b3ea487c6f366b92e5e3,62dfe6a3e28b448cf3e9d0db,0e26qhk55m18,,,,,,,,
,,,,,53.3651,Extremely Unattractive,Extremely  Attractive,mirrored,CFD_AM_233_236_N.png,NASALTIP,1,52.93945313,0.8072,-0.007013166,-0.36531033,1,0,0,NextBu,0.621972005,30,0,30,0,1,,,,2022-07-28_09h13.25.873,FaceAttractiveness,2022.2.2,MacIntel,60.0024001,60c6b3ea487c6f366b92e5e3,62dfe6a3e28b448cf3e9d0db,0e26qhk55m18,,,,,,,,
,,,,,55.0642,Extremely Unattractive,Extremely  Attractive,mirrored,CFD_AF_245_143_N.png,LCHEEK,1,43.37782118,0.8584,0.003786892,-0.389199942,1,0,0,NextBu,0.593621829,31,0,31,0,1,,,,2022-07-28_09h13.25.873,FaceAttractiveness,2022.2.2,MacIntel,60.0024001,60c6b3ea487c6f366b92e5e3,62dfe6a3e28b448cf3e9d0db,0e26qhk55m18,,,,,,,,
,,,,,56.749,Extremely Unattractive,Extremely  Attractive,mirrored,CFD_AF_237_223_N.png,RCHEEK,1,61.48328993,0.8784,0.047934751,-0.374395978,1,0,0,NextBu,0.60409511,32,0,32,0,1,,,,2022-07-28_09h13.25.873,FaceAttractiveness,2022.2.2,MacIntel,60.0024001,60c6b3ea487c6f366b92e5e3,62dfe6a3e28b448cf3e9d0db,0e26qhk55m18,,,,,,,,
,,,,,58.4319,Extremely Unattractive,Extremely  Attractive,mirrored,CFD_AF_231_357_N.png,RCHEEK,1,57.51989294,0.6573,-0.011078559,-0.384450955,1,0,0,NextBu,0.800133318,33,0,33,0,1,,,,2022-07-28_09h13.25.873,FaceAttractiveness,2022.2.2,MacIntel,60.0024001,60c6b3ea487c6f366b92e5e3,62dfe6a3e28b448cf3e9d0db,0e26qhk55m18,,,,,,,,
,,,,,60.0981,Extremely Unattractive,Extremely  Attractive,mirrored,136_M_M_N_A.png,NASALTIP,1,36.12160012,0.8405,-0.057483362,-0.383072917,1,0,0,NextBu,0.882685628,34,0,34,0,1,,,,2022-07-28_09h13.25.873,FaceAttractiveness,2022.2.2,MacIntel,60.0024001,60c6b3ea487c6f366b92e5e3,62dfe6a3e28b448cf3e9d0db,0e26qhk55m18,,,,,,,,
,,,,,62.0653,Extremely Unattractive,Extremely  Attractive,mirrored,087_M_M_N_A.png,FOREHEAD,1,65.86190683,0.7985,0.056289786,-0.378363715,1,0,0,NextBu,0.887163616,35,0,35,0,1,,,,2022-07-28_09h13.25.873,FaceAttractiveness,2022.2.2,MacIntel,60.0024001,60c6b3ea487c6f366b92e5e3,62dfe6a3e28b448cf3e9d0db,0e26qhk55m18,,,,,,,,
,,,,,63.9813,Extremely Unattractive,Extremely  Attractive,mirrored,035_M_F_N_A.png,LCHEEK,1,30.83912037,0.7485,-0.066536458,-0.380255353,1,0,0,NextBu,0.90414493,36,0,36,0,1,,,,2022-07-28_09h13.25.873,FaceAttractiveness,2022.2.2,MacIntel,60.0024001,60c6b3ea487c6f366b92e5e3,62dfe6a3e28b448cf3e9d0db,0e26qhk55m18,,,,,,,,
,,,,,65.8654,Extremely Unattractive,Extremely  Attractive,mirrored,006_M_F_N_A.png,RCHEEK,1,42.13867188,0.938,-0.004633247,-0.385409433,1,0,0,NextBu,0.635080594,37,0,37,0,1,,,,2022-07-28_09h13.25.873,FaceAttractiveness,2022.2.2,MacIntel,60.0024001,60c6b3ea487c6f366b92e5e3,62dfe6a3e28b448cf3e9d0db,0e26qhk55m18,,,,,,,,
,,,,,67.7146,Extremely Unattractive,Extremely  Attractive,mirrored,CFD_WM_212_097_N.png,LIP,2,74.07154225,0.7787,0.085449219,-0.394827836,1,0,0,NextBu,0.920220337,38,0,38,0,1,,,,2022-07-28_09h13.25.873,FaceAttractiveness,2022.2.2,MacIntel,60.0024001,60c6b3ea487c6f366b92e5e3,62dfe6a3e28b448cf3e9d0db,0e26qhk55m18,,,,,,,,
,,,,,69.7309,Extremely Unattractive,Extremely  Attractive,mirrored,CFD_WF_250_167_N.png,FOREHEAD,2,52.42078993,0.9627,-0.012944878,-0.378862847,1,0,0,NextBu,0.990880275,39,0,39,0,1,,,,2022-07-28_09h13.25.873,FaceAttractiveness,2022.2.2,MacIntel,60.0024001,60c6b3ea487c6f366b92e5e3,62dfe6a3e28b448cf3e9d0db,0e26qhk55m18,,,,,,,,
,,,,,72.049,Extremely Unattractive,Extremely  Attractive,mirrored,CFD_WF_200_099_N.png,NASALTIP,2,43.52430556,0.6648,0.038425926,-0.371574797,1,0,0,NextBu,0.927845953,40,0,40,0,1,,,,2022-07-28_09h13.25.873,FaceAttractiveness,2022.2.2,MacIntel,60.0024001,60c6b3ea487c6f366b92e5e3,62dfe6a3e28b448cf3e9d0db,0e26qhk55m18,,,,,,,,
,,,,,74.0498,Extremely Unattractive,Extremely  Attractive,mirrored,CFD_WF_002_004_N.png,NASALTIP,2,74.39959491,0.6553,0.048922164,-0.399316406,1,0,0,NextBu,0.810525581,41,0,41,0,1,,,,2022-07-28_09h13.25.873,FaceAttractiveness,2022.2.2,MacIntel,60.0024001,60c6b3ea487c6f366b92e5e3,62dfe6a3e28b448cf3e9d0db,0e26qhk55m18,,,,,,,,
,,,,,76.1816,Extremely Unattractive,Extremely  Attractive,mirrored,CFD_LM_203_026_N.png,NASALTIP,2,37.71737558,0.9223,-0.07354239,-0.375235098,1,0,0,NextBu,0.689524182,42,0,42,0,1,,,,2022-07-28_09h13.25.873,FaceAttractiveness,2022.2.2,MacIntel,60.0024001,60c6b3ea487c6f366b92e5e3,62dfe6a3e28b448cf3e9d0db,0e26qhk55m18,,,,,,,,
,,,,,78.0146,Extremely Unattractive,Extremely  Attractive,mirrored,CFD_LM_201_057_N.png,FOREHEAD,2,65.36096644,0.7727,0.02375217,-0.371520544,1,0,0,NextBu,0.691296078,43,0,43,0,1,,,,2022-07-28_09h13.25.873,FaceAttractiveness,2022.2.2,MacIntel,60.0024001,60c6b3ea487c6f366b92e5e3,62dfe6a3e28b448cf3e9d0db,0e26qhk55m18,,,,,,,,
,,,,,79.7153,Extremely Unattractive,Extremely  Attractive,mirrored,CFD_LF_224_176_N.png,FOREHEAD,2,44.02524595,0.654,0.013038918,-0.390093316,1,0,0,NextBu,0.845721465,44,0,44,0,1,,,,2022-07-28_09h13.25.873,FaceAttractiveness,2022.2.2,MacIntel,60.0024001,60c6b3ea487c6f366b92e5e3,62dfe6a3e28b448cf3e9d0db,0e26qhk55m18,,,,,,,,
,,,,,81.4322,Extremely Unattractive,Extremely  Attractive,mirrored,CFD_BM_234_172_N.png,FOREHEAD,2,71.26193576,0.6729,0.022880498,-0.404589844,1,0,0,NextBu,0.563176271,45,0,45,0,1,,,,2022-07-28_09h13.25.873,FaceAttractiveness,2022.2.2,MacIntel,60.0024001,60c6b3ea487c6f366b92e5e3,62dfe6a3e28b448cf3e9d0db,0e26qhk55m18,,,,,,,,
,,,,,82.8989,Extremely Unattractive,Extremely  Attractive,mirrored,CFD_BM_213_134_N.png,FOREHEAD,2,65.3620515,1.1388,-0.002282263,-0.383514178,1,0,0,NextBu,0.777950592,46,0,46,0,1,,,,2022-07-28_09h13.25.873,FaceAttractiveness,2022.2.2,MacIntel,60.0024001,60c6b3ea487c6f366b92e5e3,62dfe6a3e28b448cf3e9d0db,0e26qhk55m18,,,,,,,,
,,,,,85.0484,Extremely Unattractive,Extremely  Attractive,mirrored,CFD_BF_224_002_N.png,LIP,2,63.17382813,0.9378,0.014243345,-0.429481337,1,0,0,NextBu,0.69774698,47,0,47,0,1,,,,2022-07-28_09h13.25.873,FaceAttractiveness,2022.2.2,MacIntel,60.0024001,60c6b3ea487c6f366b92e5e3,62dfe6a3e28b448cf3e9d0db,0e26qhk55m18,,,,,,,,
,,,,,87.0486,Extremely Unattractive,Extremely  Attractive,mirrored,CFD_BF_214_308_N.png,LIP,2,64.36993634,0.7048,-0.014525463,-0.39734158,1,0,0,NextBu,0.505814785,48,0,48,0,1,,,,2022-07-28_09h13.25.873,FaceAttractiveness,2022.2.2,MacIntel,60.0024001,60c6b3ea487c6f366b92e5e3,62dfe6a3e28b448cf3e9d0db,0e26qhk55m18,,,,,,,,
,,,,,88.5148,Extremely Unattractive,Extremely  Attractive,mirrored,CFD_AM_233_236_N.png,LIP,2,37.27430556,0.9375,0.021191406,-0.392932581,1,0,0,NextBu,0.741468675,49,0,49,0,1,,,,2022-07-28_09h13.25.873,FaceAttractiveness,2022.2.2,MacIntel,60.0024001,60c6b3ea487c6f366b92e5e3,62dfe6a3e28b448cf3e9d0db,0e26qhk55m18,,,,,,,,
,,,,,90.4832,Extremely Unattractive,Extremely  Attractive,mirrored,CFD_AF_245_143_N.png,FOREHEAD,2,45.14865451,0.7721,-0.013255932,-0.383543113,1,0,0,NextBu,0.718635326,50,0,50,0,1,,,,2022-07-28_09h13.25.873,FaceAttractiveness,2022.2.2,MacIntel,60.0024001,60c6b3ea487c6f366b92e5e3,62dfe6a3e28b448cf3e9d0db,0e26qhk55m18,,,,,,,,
,,,,,92.2326,Extremely Unattractive,Extremely  Attractive,mirrored,CFD_AF_237_223_N.png,NASALTIP,2,63.9879919,0.8049,0.034382234,-0.399139178,1,0,0,NextBu,0.592243566,51,0,51,0,1,,,,2022-07-28_09h13.25.873,FaceAttractiveness,2022.2.2,MacIntel,60.0024001,60c6b3ea487c6f366b92e5e3,62dfe6a3e28b448cf3e9d0db,0e26qhk55m18,,,,,,,,
,,,,,93.8654,Extremely Unattractive,Extremely  Attractive,mirrored,CFD_AF_231_357_N.png,NASALTIP,2,42.2406684,0.7906,-0.023987269,-0.373668981,1,0,0,NextBu,0.819248849,52,0,52,0,1,,,,2022-07-28_09h13.25.873,FaceAttractiveness,2022.2.2,MacIntel,60.0024001,60c6b3ea487c6f366b92e5e3,62dfe6a3e28b448cf3e9d0db,0e26qhk55m18,,,,,,,,
,,,,,95.6654,Extremely Unattractive,Extremely  Attractive,mirrored,136_M_M_N_A.png,RCHEEK,2,67.58101852,0.7467,0.013031684,-0.413422309,1,0,0,NextBu,0.54113642,53,0,53,0,1,,,,2022-07-28_09h13.25.873,FaceAttractiveness,2022.2.2,MacIntel,60.0024001,60c6b3ea487c6f366b92e5e3,62dfe6a3e28b448cf3e9d0db,0e26qhk55m18,,,,,,,,
,,,,,97.1655,Extremely Unattractive,Extremely  Attractive,mirrored,087_M_M_N_A.png,LCHEEK,2,45.60040509,0.7285,-0.019408275,-0.366540075,1,0,0,NextBu,0.55220298,54,0,54,0,1,,,,2022-07-28_09h13.25.873,FaceAttractiveness,2022.2.2,MacIntel,60.0024001,60c6b3ea487c6f366b92e5e3,62dfe6a3e28b448cf3e9d0db,0e26qhk55m18,,,,,,,,
,,,,,98.6311,Extremely Unattractive,Extremely  Attractive,mirrored,035_M_F_N_A.png,FOREHEAD,2,69.40899884,0.6905,0.030689381,-0.372167969,1,0,0,NextBu,0.814391296,55,0,55,0,1,,,,2022-07-28_09h13.25.873,FaceAttractiveness,2022.2.2,MacIntel,60.0024001,60c6b3ea487c6f366b92e5e3,62dfe6a3e28b448cf3e9d0db,0e26qhk55m18,,,,,,,,
,,,,,100.3818,Extremely Unattractive,Extremely  Attractive,mirrored,006_M_F_N_A.png,FOREHEAD,2,44.66435185,0.6285,-0.020402922,-0.360648148,1,0,0,NextBu,0.711995711,56,0,56,0,1,,,,2022-07-28_09h13.25.873,FaceAttractiveness,2022.2.2,MacIntel,60.0024001,60c6b3ea487c6f366b92e5e3,62dfe6a3e28b448cf3e9d0db,0e26qhk55m18,,,,,,,,
,,,,,101.9486,Extremely Unattractive,Extremely  Attractive,mirrored,CFD_WM_212_097_N.png,FOREHEAD,3,60.1135706,0.9271,0.023567708,-0.388440394,1,0,0,NextBu,0.839635336,57,0,57,0,1,,,,2022-07-28_09h13.25.873,FaceAttractiveness,2022.2.2,MacIntel,60.0024001,60c6b3ea487c6f366b92e5e3,62dfe6a3e28b448cf3e9d0db,0e26qhk55m18,,,,,,,,
,,,,,103.9157,Extremely Unattractive,Extremely  Attractive,mirrored,CFD_WF_250_167_N.png,LIP,3,42.29347512,1.093,-0.065628617,-0.391370081,1,0,0,NextBu,0.98436075,58,0,58,0,1,,,,2022-07-28_09h13.25.873,FaceAttractiveness,2022.2.2,MacIntel,60.0024001,60c6b3ea487c6f366b92e5e3,62dfe6a3e28b448cf3e9d0db,0e26qhk55m18,,,,,,,,
,,,,,106.165,Extremely Unattractive,Extremely  Attractive,mirrored,CFD_WF_200_099_N.png,FOREHEAD,3,44.52220775,1.991,-0.056640625,-0.388505498,1,0,0,NextBu,0.554502979,59,0,59,0,1,,,,2022-07-28_09h13.25.873,FaceAttractiveness,2022.2.2,MacIntel,60.0024001,60c6b3ea487c6f366b92e5e3,62dfe6a3e28b448cf3e9d0db,0e26qhk55m18,,,,,,,,
,,,,,108.9483,Extremely Unattractive,Extremely  Attractive,mirrored,CFD_WF_002_004_N.png,LIP,3,39.03826678,0.8229,-0.065606916,-0.375021701,1,0,0,NextBu,0.761879528,60,0,60,0,1,,,,2022-07-28_09h13.25.873,FaceAttractiveness,2022.2.2,MacIntel,60.0024001,60c6b3ea487c6f366b92e5e3,62dfe6a3e28b448cf3e9d0db,0e26qhk55m18,,,,,,,,
,,,,,110.8158,Extremely Unattractive,Extremely  Attractive,mirrored,CFD_LM_203_026_N.png,LIP,3,31.02539063,0.8627,0.042324942,-0.378674769,1,0,0,NextBu,0.755376167,61,0,61,0,1,,,,2022-07-28_09h13.25.873,FaceAttractiveness,2022.2.2,MacIntel,60.0024001,60c6b3ea487c6f366b92e5e3,62dfe6a3e28b448cf3e9d0db,0e26qhk55m18,,,,,,,,
,,,,,112.7325,Extremely Unattractive,Extremely  Attractive,mirrored,CFD_LM_201_057_N.png,LIP,3,32.59114583,0.6907,-0.000379774,-0.379456019,1,0,0,NextBu,0.715123798,62,0,62,0,1,,,,2022-07-28_09h13.25.873,FaceAttractiveness,2022.2.2,MacIntel,60.0024001,60c6b3ea487c6f366b92e5e3,62dfe6a3e28b448cf3e9d0db,0e26qhk55m18,,,,,,,,
,,,,,114.3814,Extremely Unattractive,Extremely  Attractive,mirrored,CFD_LF_224_176_N.png,LIP,3,31.95891204,0.8087,0.003844763,-0.389684606,1,0,0,NextBu,0.8859498,63,0,63,0,1,,,,2022-07-28_09h13.25.873,FaceAttractiveness,2022.2.2,MacIntel,60.0024001,60c6b3ea487c6f366b92e5e3,62dfe6a3e28b448cf3e9d0db,0e26qhk55m18,,,,,,,,
,,,,,116.4155,Extremely Unattractive,Extremely  Attractive,mirrored,CFD_BM_234_172_N.png,LIP,3,36.11762153,0.9261,-0.02276114,-0.396010561,1,0,0,NextBu,0.55267511,64,0,64,0,1,,,,2022-07-28_09h13.25.873,FaceAttractiveness,2022.2.2,MacIntel,60.0024001,60c6b3ea487c6f366b92e5e3,62dfe6a3e28b448cf3e9d0db,0e26qhk55m18,,,,,,,,
,,,,,118.3485,Extremely Unattractive,Extremely  Attractive,mirrored,CFD_BM_213_134_N.png,LCHEEK,3,44.3218316,0.9589,-0.021889468,-0.402662037,1,0,0,NextBu,0.829807011,65,0,65,0,1,,,,2022-07-28_09h13.25.873,FaceAttractiveness,2022.2.2,MacIntel,60.0024001,60c6b3ea487c6f366b92e5e3,62dfe6a3e28b448cf3e9d0db,0e26qhk55m18,,,,,,,,
,,,,,120.566,Extremely Unattractive,Extremely  Attractive,mirrored,CFD_BF_224_002_N.png,NASALTIP,3,31.39865451,1.0047,-0.010123698,-0.392426215,1,0,0,NextBu,0.527681812,66,0,66,0,1,,,,2022-07-28_09h13.25.873,FaceAttractiveness,2022.2.2,MacIntel,60.0024001,60c6b3ea487c6f366b92e5e3,62dfe6a3e28b448cf3e9d0db,0e26qhk55m18,,,,,,,,
,,,,,122.3993,Extremely Unattractive,Extremely  Attractive,mirrored,CFD_BF_214_308_N.png,NASALTIP,3,33.75687211,0.8429,-0.048914931,-0.392212818,1,0,0,NextBu,0.718569504,67,0,67,0,1,,,,2022-07-28_09h13.25.873,FaceAttractiveness,2022.2.2,MacIntel,60.0024001,60c6b3ea487c6f366b92e5e3,62dfe6a3e28b448cf3e9d0db,0e26qhk55m18,,,,,,,,
,,,,,124.167,Extremely Unattractive,Extremely  Attractive,mirrored,CFD_AM_233_236_N.png,FOREHEAD,3,42.32494213,0.7782,0.040874566,-0.405096209,1,0,0,NextBu,0.596221943,68,0,68,0,1,,,,2022-07-28_09h13.25.873,FaceAttractiveness,2022.2.2,MacIntel,60.0024001,60c6b3ea487c6f366b92e5e3,62dfe6a3e28b448cf3e9d0db,0e26qhk55m18,,,,,,,,
,,,,,125.7986,Extremely Unattractive,Extremely  Attractive,mirrored,CFD_AF_245_143_N.png,RCHEEK,3,31.80700231,0.79,-0.024019821,-0.386736834,1,0,0,NextBu,0.83915877,69,0,69,0,1,,,,2022-07-28_09h13.25.873,FaceAttractiveness,2022.2.2,MacIntel,60.0024001,60c6b3ea487c6f366b92e5e3,62dfe6a3e28b448cf3e9d0db,0e26qhk55m18,,,,,,,,
,,,,,127.7153,Extremely Unattractive,Extremely  Attractive,mirrored,CFD_AF_237_223_N.png,FOREHEAD,3,36.24023438,0.8071,0.044686777,-0.405016638,1,0,0,NextBu,0.677443491,70,0,70,0,1,,,,2022-07-28_09h13.25.873,FaceAttractiveness,2022.2.2,MacIntel,60.0024001,60c6b3ea487c6f366b92e5e3,62dfe6a3e28b448cf3e9d0db,0e26qhk55m18,,,,,,,,
,,,,,129.4822,Extremely Unattractive,Extremely  Attractive,mirrored,CFD_AF_231_357_N.png,FOREHEAD,3,35.76895255,0.7797,-0.002517361,-0.440549045,1,0,0,NextBu,0.504897652,71,0,71,0,1,,,,2022-07-28_09h13.25.873,FaceAttractiveness,2022.2.2,MacIntel,60.0024001,60c6b3ea487c6f366b92e5e3,62dfe6a3e28b448cf3e9d0db,0e26qhk55m18,,,,,,,,
,,,,,130.999,Extremely Unattractive,Extremely  Attractive,mirrored,136_M_M_N_A.png,LCHEEK,3,34.02850116,0.7077,-0.033944589,-0.385463686,1,0,0,NextBu,0.677274049,72,0,72,0,1,,,,2022-07-28_09h13.25.873,FaceAttractiveness,2022.2.2,MacIntel,60.0024001,60c6b3ea487c6f366b92e5e3,62dfe6a3e28b448cf3e9d0db,0e26qhk55m18,,,,,,,,
,,,,,132.5655,Extremely Unattractive,Extremely  Attractive,mirrored,087_M_M_N_A.png,NASALTIP,3,31.73755787,0.6624,0.033275463,-0.379864728,1,0,0,NextBu,0.530988654,73,0,73,0,1,,,,2022-07-28_09h13.25.873,FaceAttractiveness,2022.2.2,MacIntel,60.0024001,60c6b3ea487c6f366b92e5e3,62dfe6a3e28b448cf3e9d0db,0e26qhk55m18,,,,,,,,
,,,,,133.9993,Extremely Unattractive,Extremely  Attractive,mirrored,035_M_F_N_A.png,RCHEEK,3,34.96997975,0.8398,-0.028598814,-0.383062066,1,0,0,NextBu,0.962365194,74,0,74,0,1,,,,2022-07-28_09h13.25.873,FaceAttractiveness,2022.2.2,MacIntel,60.0024001,60c6b3ea487c6f366b92e5e3,62dfe6a3e28b448cf3e9d0db,0e26qhk55m18,,,,,,,,
,,,,,136.0158,Extremely Unattractive,Extremely  Attractive,mirrored,006_M_F_N_A.png,LCHEEK,3,35.50528067,0.5403,0.011255787,-0.369777199,1,0,0,NextBu,0.644830982,75,0,75,0,1,,,,2022-07-28_09h13.25.873,FaceAttractiveness,2022.2.2,MacIntel,60.0024001,60c6b3ea487c6f366b92e5e3,62dfe6a3e28b448cf3e9d0db,0e26qhk55m18,,,,,,,,
,,,,,137.5157,Extremely Unattractive,Extremely  Attractive,mirrored,CFD_WM_212_097_N.png,RCHEEK,4,36.80844907,0.6581,-0.037362558,-0.399193432,1,0,0,NextBu,0.529754321,76,0,76,0,1,,,,2022-07-28_09h13.25.873,FaceAttractiveness,2022.2.2,MacIntel,60.0024001,60c6b3ea487c6f366b92e5e3,62dfe6a3e28b448cf3e9d0db,0e26qhk55m18,,,,,,,,
,,,,,138.9989,Extremely Unattractive,Extremely  Attractive,mirrored,CFD_WF_250_167_N.png,RCHEEK,4,40.0640191,1.0455,-0.046451823,-0.385054977,1,0,0,NextBu,0.648415867,77,0,77,0,1,,,,2022-07-28_09h13.25.873,FaceAttractiveness,2022.2.2,MacIntel,60.0024001,60c6b3ea487c6f366b92e5e3,62dfe6a3e28b448cf3e9d0db,0e26qhk55m18,,,,,,,,
,,,,,140.9487,Extremely Unattractive,Extremely  Attractive,mirrored,CFD_WF_200_099_N.png,LCHEEK,4,38.39518229,0.4817,-0.023632812,-0.388216146,1,0,0,NextBu,0.884690672,78,0,78,0,1,,,,2022-07-28_09h13.25.873,FaceAttractiveness,2022.2.2,MacIntel,60.0024001,60c6b3ea487c6f366b92e5e3,62dfe6a3e28b448cf3e9d0db,0e26qhk55m18,,,,,,,,
,,,,,142.5657,Extremely Unattractive,Extremely  Attractive,mirrored,CFD_WF_002_004_N.png,RCHEEK,4,37.79296875,0.9734,-0.004032841,-0.387322772,1,0,0,NextBu,0.740244267,79,0,79,0,1,,,,2022-07-28_09h13.25.873,FaceAttractiveness,2022.2.2,MacIntel,60.0024001,60c6b3ea487c6f366b92e5e3,62dfe6a3e28b448cf3e9d0db,0e26qhk55m18,,,,,,,,
,,,,,144.4982,Extremely Unattractive,Extremely  Attractive,mirrored,CFD_LM_203_026_N.png,FOREHEAD,4,37.79658565,0.696,-0.005960648,-0.390856481,1,0,0,NextBu,0.808450945,80,0,80,0,1,,,,2022-07-28_09h13.25.873,FaceAttractiveness,2022.2.2,MacIntel,60.0024001,60c6b3ea487c6f366b92e5e3,62dfe6a3e28b448cf3e9d0db,0e26qhk55m18,,,,,,,,
,,,,,146.1986,Extremely Unattractive,Extremely  Attractive,mirrored,CFD_LM_201_057_N.png,RCHEEK,4,39.17426215,0.6734,-0.017928964,-0.388205295,1,0,0,NextBu,0.852528472,81,0,81,0,1,,,,2022-07-28_09h13.25.873,FaceAttractiveness,2022.2.2,MacIntel,60.0024001,60c6b3ea487c6f366b92e5e3,62dfe6a3e28b448cf3e9d0db,0e26qhk55m18,,,,,,,,
,,,,,147.9155,Extremely Unattractive,Extremely  Attractive,mirrored,CFD_LF_224_176_N.png,RCHEEK,4,32.67469618,0.8881,-0.054488571,-0.354976852,1,0,0,NextBu,0.914618015,82,0,82,0,1,,,,2022-07-28_09h13.25.873,FaceAttractiveness,2022.2.2,MacIntel,60.0024001,60c6b3ea487c6f366b92e5e3,62dfe6a3e28b448cf3e9d0db,0e26qhk55m18,,,,,,,,
,,,,,149.9485,Extremely Unattractive,Extremely  Attractive,mirrored,CFD_BM_234_172_N.png,RCHEEK,4,32.31336806,0.6747,-0.040455006,-0.373925781,1,0,0,NextBu,0.943021924,83,0,83,0,1,,,,2022-07-28_09h13.25.873,FaceAttractiveness,2022.2.2,MacIntel,60.0024001,60c6b3ea487c6f366b92e5e3,62dfe6a3e28b448cf3e9d0db,0e26qhk55m18,,,,,,,,
,,,,,151.9829,Extremely Unattractive,Extremely  Attractive,mirrored,CFD_BM_213_134_N.png,NASALTIP,4,39.62962963,0.5405,-0.052376302,-0.36135706,1,0,0,NextBu,0.529007984,84,0,84,0,1,,,,2022-07-28_09h13.25.873,FaceAttractiveness,2022.2.2,MacIntel,60.0024001,60c6b3ea487c6f366b92e5e3,62dfe6a3e28b448cf3e9d0db,0e26qhk55m18,,,,,,,,
,,,,,153.266,Extremely Unattractive,Extremely  Attractive,mirrored,CFD_BF_224_002_N.png,RCHEEK,4,35.57978877,0.6722,-0.04427445,-0.380483218,1,0,0,NextBu,0.975870974,85,0,85,0,1,,,,2022-07-28_09h13.25.873,FaceAttractiveness,2022.2.2,MacIntel,60.0024001,60c6b3ea487c6f366b92e5e3,62dfe6a3e28b448cf3e9d0db,0e26qhk55m18,,,,,,,,
,,,,,155.0829,Extremely Unattractive,Extremely  Attractive,mirrored,CFD_BF_214_308_N.png,LCHEEK,4,36.92889178,0.5898,-0.031546586,-0.388436777,1,0,0,NextBu,0.792699063,86,0,86,0,1,,,,2022-07-28_09h13.25.873,FaceAttractiveness,2022.2.2,MacIntel,60.0024001,60c6b3ea487c6f366b92e5e3,62dfe6a3e28b448cf3e9d0db,0e26qhk55m18,,,,,,,,
,,,,,156.6661,Extremely Unattractive,Extremely  Attractive,mirrored,CFD_AM_233_236_N.png,RCHEEK,4,34.67086227,0.5546,-0.013946759,-0.386114728,1,0,0,NextBu,0.830612529,87,0,87,0,1,,,,2022-07-28_09h13.25.873,FaceAttractiveness,2022.2.2,MacIntel,60.0024001,60c6b3ea487c6f366b92e5e3,62dfe6a3e28b448cf3e9d0db,0e26qhk55m18,,,,,,,,
,,,,,158.315,Extremely Unattractive,Extremely  Attractive,mirrored,CFD_AF_245_143_N.png,NASALTIP,4,36.39105903,0.4409,-0.05240162,-0.408590133,1,0,0,NextBu,0.588847045,88,0,88,0,1,,,,2022-07-28_09h13.25.873,FaceAttractiveness,2022.2.2,MacIntel,60.0024001,60c6b3ea487c6f366b92e5e3,62dfe6a3e28b448cf3e9d0db,0e26qhk55m18,,,,,,,,
,,,,,159.6662,Extremely Unattractive,Extremely  Attractive,mirrored,CFD_AF_237_223_N.png,LIP,4,32.63780382,0.6899,0.012890625,-0.424359809,1,0,0,NextBu,0.652412223,89,0,89,0,1,,,,2022-07-28_09h13.25.873,FaceAttractiveness,2022.2.2,MacIntel,60.0024001,60c6b3ea487c6f366b92e5e3,62dfe6a3e28b448cf3e9d0db,0e26qhk55m18,,,,,,,,
,,,,,161.1992,Extremely Unattractive,Extremely  Attractive,mirrored,CFD_AF_231_357_N.png,LIP,4,35.625,0.6567,-0.020735677,-0.378360098,1,0,0,NextBu,0.85006379,90,0,90,0,1,,,,2022-07-28_09h13.25.873,FaceAttractiveness,2022.2.2,MacIntel,60.0024001,60c6b3ea487c6f366b92e5e3,62dfe6a3e28b448cf3e9d0db,0e26qhk55m18,,,,,,,,
,,,,,162.8824,Extremely Unattractive,Extremely  Attractive,mirrored,136_M_M_N_A.png,LIP,4,36.52596933,0.4741,-0.047460938,-0.38577474,1,0,0,NextBu,0.846595245,91,0,91,0,1,,,,2022-07-28_09h13.25.873,FaceAttractiveness,2022.2.2,MacIntel,60.0024001,60c6b3ea487c6f366b92e5e3,62dfe6a3e28b448cf3e9d0db,0e26qhk55m18,,,,,,,,
,,,,,164.6163,Extremely Unattractive,Extremely  Attractive,mirrored,087_M_M_N_A.png,LIP,4,28.31380208,0.638,-0.082396557,-0.391579861,1,0,0,NextBu,0.684101484,92,0,92,0,1,,,,2022-07-28_09h13.25.873,FaceAttractiveness,2022.2.2,MacIntel,60.0024001,60c6b3ea487c6f366b92e5e3,62dfe6a3e28b448cf3e9d0db,0e26qhk55m18,,,,,,,,
,,,,,166.2657,Extremely Unattractive,Extremely  Attractive,mirrored,035_M_F_N_A.png,NASALTIP,4,29.59056713,0.927,-0.056152344,-0.394704861,1,0,0,NextBu,0.61341398,93,0,93,0,1,,,,2022-07-28_09h13.25.873,FaceAttractiveness,2022.2.2,MacIntel,60.0024001,60c6b3ea487c6f366b92e5e3,62dfe6a3e28b448cf3e9d0db,0e26qhk55m18,,,,,,,,
,,,,,168.0328,Extremely Unattractive,Extremely  Attractive,mirrored,006_M_F_N_A.png,LIP,4,34.8473669,0.8595,-0.033825231,-0.405881076,1,0,0,NextBu,0.635047146,94,0,94,0,1,,,,2022-07-28_09h13.25.873,FaceAttractiveness,2022.2.2,MacIntel,60.0024001,60c6b3ea487c6f366b92e5e3,62dfe6a3e28b448cf3e9d0db,0e26qhk55m18,,,,,,,,
,,,,,,,,,,,,,,,,,,,,,,,,,,,,,2022-07-28_09h13.25.873,FaceAttractiveness,2022.2.2,MacIntel,60.0024001,60c6b3ea487c6f366b92e5e3,62dfe6a3e28b448cf3e9d0db,0e26qhk55m18,0,0,0,0,1,Attractiveness,Extremely  Attractive,Extremely Unattractive
,,,,,,,,,,,,,,,,,,,,,,,,,,,,,2022-07-28_09h13.25.873,FaceAttractiveness,2022.2.2,MacIntel,60.0024001,60c6b3ea487c6f366b92e5e3,62dfe6a3e28b448cf3e9d0db,0e26qhk55m18,,,,,,,,
